,acc_x,acc_y,acc_z,gyro_x,gyro_y,gyro_z,magnet_x,magnet_y,magnet_z
1970-01-01 00:00:05.038899333,-1.4138518795800001,-5.3980087825212015,3.0459918274616,-1.0806968194639128,-0.6671950770556522,0.08387526145304347,-2.4682771953934783,24.071313692608697,-28.317559616086957
1970-01-01 00:00:05.288899333,-4.882437303584616,-10.052536028830769,3.5581757349457694,-0.2631089127943044,0.1016620838247391,0.7232200113869567,-0.13218340667826095,27.73640309086957,-25.117602224347824
1970-01-01 00:00:05.538899333,-3.1378168762852,-8.961821795715998,2.6267855713,0.21821892882500002,0.04934568509724999,-0.7878362778541668,-1.1228853067083333,29.01723941208333,-23.557874838333333
1970-01-01 00:00:05.788899333,-3.755626672819231,-5.384239953772307,2.700810558481923,1.1756425029947826,0.3068603369234782,-0.0220183097573913,-2.8491169059130437,23.610580610434784,-28.697822239130435
1970-01-01 00:00:06.038899333,-5.482457171591999,-13.771188666103999,6.5188419988240005,-1.0981123877775,-0.3304621406629167,-0.18361229880625,-1.8991198937666667,20.877377113333335,-30.82410375208333
1970-01-01 00:00:06.288899333,0.2618343588265385,-1.4399364059638462,1.7740473876346157,-0.16232745186695652,-0.24119531210453912,0.5779717253565216,-4.1551056944782605,28.349019673043482,-24.081785202608696
1970-01-01 00:00:06.538899333,-7.751792064996,-17.208891924648,5.304932336288,-0.0071133946429166595,-0.023655132949999953,-0.2871059249300833,-1.3828407724845835,28.31406950916667,-24.441876331666666
1970-01-01 00:00:06.788899333,-0.11215715260807692,-0.4232448578313462,0.5163109412546153,1.3886945065217389,0.5800050380126086,-0.17261967780523477,-4.072356804695652,26.125509260434786,-26.31652467391305
1970-01-01 00:00:07.038899333,-8.647523152615385,-15.561052163615384,8.9511379359,-0.2901510602721739,-0.06925569679391305,-0.0811652501606087,-1.9410564069565222,16.249539292173914,-33.66176356391304
1970-01-01 00:00:07.288899333,-0.24545357664720002,-1.520675738466,0.6882747252999999,-1.0650174957091667,-0.6819556331979166,0.53462414519875,-5.362792005166667,25.895743449166662,-26.274409294166663
1970-01-01 00:00:07.538899333,-6.781014192488846,-16.276875140615388,6.816784039846154,-0.06856156382217393,0.20497753482760875,-0.18430442198260868,-2.5354242324347824,28.934141490869564,-23.644380901304352
1970-01-01 00:00:07.788899333,0.010699749682480046,-1.6975060179750399,0.28401937868360005,0.831688594675,0.0919312129875,-0.5476586320974582,-6.674530486375001,26.944092512916665,-25.057706911250005
1970-01-01 00:00:08.038899333,-5.994607226807692,-12.270583191435772,9.356477719666536,1.2301011117173912,-0.25701772267304346,0.3450684374282608,-7.282324915478262,16.777548830869566,-31.84862816695652
1970-01-01 00:00:08.288899333,-1.0521440552280001,-4.7470544494824,3.9830671688440002,-1.8391243160408692,-0.6537456310365216,0.1620073875747826,-9.914682512434783,21.641370193043482,-28.222163406956522
1970-01-01 00:00:08.538899333,-4.322446042503846,-11.799748833951153,3.721077364353846,-0.2546562371904167,0.6639073981183333,0.33955980275416664,-5.919543445083334,29.03655147625,-22.75367236125
1970-01-01 00:00:08.788899333,-0.22610780618399987,-7.1468161198199995,2.0724762635615597,0.9344589417729129,2.238096003978261,-0.9122774330606522,-3.168412146434783,27.660954021304356,-24.95489410782608
1970-01-01 00:00:09.038899333,-4.758978653051923,-6.327814319100001,0.03230397743653838,0.36198443290041665,1.2329429440479167,-0.38387097526874997,-1.8276605609999999,26.26549149,-26.650230409999995
1970-01-01 00:00:09.288899333,-5.375022583203999,-17.463129235276,3.053835516412,-0.10415735224999997,-1.941110087160435,0.6330515690843478,-1.8276605610000003,26.265491490000006,-26.650230409999995
1970-01-01 00:00:09.538899333,-0.0488906390326925,0.10764921922538452,0.4699362241653846,-1.3052879234565216,0.02831099442391306,0.2960654573517391,-0.37001182740173916,27.27902139,-25.448667941739128
1970-01-01 00:00:09.788899333,-6.2428638978599995,-18.6745301146732,2.5937762146240004,0.4239434841043333,-0.12984579211083333,-0.25616804580375,1.4026712626791669,31.009607155416663,-20.849337179583333
1970-01-01 00:00:10.038899333,-0.18317293600384615,-0.22715839095076923,0.09088983976538462,1.6902300482608699,1.0979733790430435,0.13179727259404347,3.555211606230435,23.779615236086958,-28.29696066391304
1970-01-01 00:00:10.288899333,-10.757918793199998,-15.657991039839999,9.1839179442,-0.038205308189166655,-0.1890294253675,0.07473648368791667,11.051617382833333,13.878078540833334,-32.89139254875
1970-01-01 00:00:10.538899333,-0.7693769953453846,-2.449471681837308,-0.16729441718230767,-1.7254021685652177,-1.5587097276739126,0.21937266059043478,0.5310722537956521,23.105033500000005,-28.87455923652174
1970-01-01 00:00:10.788899333,-5.533047813265385,-17.892482775076925,4.378872933053847,-0.19523563756565213,0.4543256383521739,-0.3789449100913043,-2.505904684913043,30.81799275130435,-21.058125869130436
1970-01-01 00:00:11.038899333,0.6494275085396,-0.5654521362188001,-0.07349716189160004,1.2815871126958334,0.8165523161374999,-0.1887943170437083,0.036072757092916685,28.898814758333334,-26.46631932291667
1970-01-01 00:00:11.288899333,-7.373516693280769,-13.371221325480768,6.490266882263077,0.85635982739,0.5382317768486956,0.6726168850686955,6.825090760869564,18.074282439565216,-34.50905808217391
1970-01-01 00:00:11.538899333,-1.5867842650440003,-4.8779781924204,2.5057951722647998,-1.493689263833333,-1.4117756584458334,-0.5327894257908333,2.51935810105,22.478845715000002,-32.038065672500004
1970-01-01 00:00:11.788899333,-3.471085686069231,-12.981264935798846,2.394967716273077,-0.6120696504978261,-0.07756137043043478,0.48412799641304344,-2.364769650534783,31.85861371913044,-23.569558848695657
1970-01-01 00:00:12.038899333,-2.2635688843132,-6.1955622623040005,1.3845967162683999,0.9068660139875,0.45376047496,-0.5645104803029167,-2.41563727955,30.343313774166663,-25.426272869583332
1970-01-01 00:00:12.288899333,-3.54513554477,-8.29198365391923,2.553321110661538,1.0192970406347828,0.24688872943791307,0.34378141164826087,-2.554390145386957,22.131795053478264,-32.73600470521738
1970-01-01 00:00:12.538899333,-5.541392614909199,-12.40521322564,6.188772381784,-0.9706557444608697,-0.9448828023130436,0.3534742644826087,0.647773951186348,19.929438383913045,-34.82285955695652
1970-01-01 00:00:12.788899333,-0.21284584629230768,-1.8754787679038463,0.9599537659476922,-1.3641963501708334,0.14186999046541668,0.6685988159295833,-0.7381393412625,27.32407752791667,-30.983882905
1970-01-01 00:00:13.038899333,-5.613704242136001,-18.801154797292,3.3843242614144,0.7432263843478261,0.41749573026478254,-0.4827258717682608,4.233861912826088,31.127699479130435,-26.805955636521734
1970-01-01 00:00:13.288899333,-0.5811607009038461,-0.5389887824653846,0.4228418496423077,1.6811983709333334,0.09109045360833336,-0.16468420449791665,0.8395169154375001,28.1087450975,-30.402698596666664
1970-01-01 00:00:13.538899333,-7.988857085999999,-17.75248352124,9.144573761148001,-0.5503951706239131,0.008879482597391295,-0.28432932008043477,2.513525522217391,20.933180187826082,-36.02167826130435
1970-01-01 00:00:13.788899333,-0.003028317992307696,-0.7216896232715384,-0.3267532055696154,-1.2854739763652174,-1.0186308560343478,0.37794783680434785,-1.9624453316669566,29.758842799130438,-28.917869319130432
1970-01-01 00:00:14.038899333,-4.891568315634616,-18.667651573384617,4.933809321119232,0.029483776245000055,0.41608079898333333,-0.16192656320416668,-1.621421875975,35.228157520833335,-22.388666311666668
1970-01-01 00:00:14.288899333,0.7841832825175998,0.056869738747999984,-0.296245953396,1.2599410336869565,0.2366152394278261,-0.2675427286397826,-2.915344062086956,31.86643890652174,-26.93127010130435
1970-01-01 00:00:14.538899333,-7.640382896153847,-16.47744075449231,7.6851455809,0.32303460903875003,0.4057806577254583,0.003756361084750026,0.6072360623920834,25.949369271666665,-33.13203867291667
1970-01-01 00:00:14.788899333,-0.49813412466920004,-1.93470276470916,1.0360734741320001,-1.2345405117173915,-1.140159023852174,0.19749309818826088,-4.0590998192521734,30.36421377695653,-28.80404289956522
1970-01-01 00:00:15.038899333,-4.680702966426923,-17.023867916115385,4.688866759013461,-0.15157219184347823,0.19546212429034782,0.282359434226087,-1.879883796008378,32.14102504608696,-27.188806284347834
1970-01-01 00:00:15.288899333,-0.11664343876799994,-1.5041560914764,0.27901977537999995,0.82878414041375,0.4580329802433334,-0.5933385689958333,-3.6291019817499994,30.95837164041667,-28.558873733333332
1970-01-01 00:00:15.538899333,-5.598945394944232,-11.197107802833463,7.008011380823078,1.1197818767408696,0.4284640908752175,0.42618180837478264,-0.1160130863793042,23.66405669478261,-35.251842498260864
1970-01-01 00:00:15.788899333,-2.559162194752,-6.680553716576401,3.853472662208,-1.4729331756166666,-0.7556527107804166,-0.29450402057166664,-0.049267545274999915,23.71666542666667,-35.406941969583336
1970-01-01 00:00:16.038899333,-2.4066146498434615,-12.882378264211537,2.5136190560796154,-0.7503229843139131,-0.2054499322521739,0.22798696999999993,-4.774550127086957,32.761771326521746,-27.200690973478256
1970-01-01 00:00:16.288899333,-1.363628320328,-5.3031240972412,1.0926138977639999,0.9277691179608697,0.08444551633478263,-0.20038583656695655,-6.221663744608694,32.91810433739129,-26.734981206956515
1970-01-01 00:00:16.538899333,-3.4488281247546153,-7.760531123484616,6.589308999231154,1.8566574454916667,0.33525217495708337,0.30818930698624997,-5.277397905868333,22.72755336791667,-35.616482733750004
1970-01-01 00:00:16.788899333,-4.969623614372,-9.299142334483998,7.327993359024,-1.6774499007330435,-0.45657322461304345,-0.5010810725391306,-1.02901498382,22.40728320347826,-35.26657220521739
1970-01-01 00:00:17.038899333,0.03275304343923081,-5.12765621475,1.8147915060923079,-0.6209238242570834,-0.5646227328620833,0.39672418807500004,-4.458860208583334,34.07511965375,-24.279509783333328
1970-01-01 00:00:17.288899333,-4.436797632124001,-13.766302826368001,3.269530975248,0.17980342162173912,0.28675446429130436,-0.44022154915130435,-5.410559571260869,35.08771548,-22.72863694869565
1970-01-01 00:00:17.538899333,-1.5763776750611538,-2.6977534539576924,3.461033512638846,1.81115617081375,0.12100267572025002,0.04729721836416665,-6.558013419374999,32.40510527083333,-26.203888973749997
1970-01-01 00:00:17.788899333,-5.9044543164230765,-14.648492149730771,10.303558255403846,-0.8101896182695654,0.24724639693130435,-0.3046881805039131,-4.757297246391303,20.920424336521737,-35.62165086217391
1970-01-01 00:00:18.038899333,0.182835790972,-0.7349416809628001,0.50447493904,-1.1930178832130436,-0.47968339929652176,0.45810056518478265,-8.652570766043478,31.313836719565217,-26.652232460869566
1970-01-01 00:00:18.288899333,-4.8359819855115385,-18.168733309634614,6.74267660876923,-0.014586373681041617,0.12809648234875,-0.16027330111666668,-5.689593394708333,35.19278144875,-22.579892715
1970-01-01 00:00:18.538899333,0.259362652576,-0.7232899109119999,-0.1411804137536,0.8862117606999999,0.25588916078304347,-0.28829538895260864,-6.7423107935217415,33.4232240778261,-24.82302574608696
1970-01-01 00:00:18.788899333,-5.233664615249999,-12.324758993442307,8.84364416272323,1.4347213717333334,1.9240236748666668,-1.0111641033604166,-3.7981866397916675,23.83187747291667,-33.195992705
1970-01-01 00:00:19.038899333,-2.9178522948336,-6.568700317943999,3.063457507292,-1.358287338036087,0.7051191271130431,-1.3060984293613045,8.605606410956522,23.965629909130435,-32.700885441304344
1970-01-01 00:00:19.288899333,-2.680493193469231,-11.437271840182692,0.4877319101011539,-1.2173916194908696,-1.2777321069127392,0.4822514386239129,2.7907657908739134,33.39149350782609,-24.156659251304344
1970-01-01 00:00:19.538899333,-1.55077514638,-8.3334105837972,-0.07041357423079997,1.1320424006166665,1.2750075574395832,-0.5257629410916667,0.47732279200291666,34.01070419875,-23.522428512916665
1970-01-01 00:00:19.788899333,-4.2513611719461535,-6.167607087326307,1.5305211112684616,0.5876132534521739,0.3467727572465218,0.9946270971021738,1.701010641952174,31.002980772608705,-27.169014474347822
1970-01-01 00:00:20.038899333,-5.437364941216,-15.324418707476,3.8070871216639994,-0.16838152342916668,-0.768066448825,-0.4830811594758333,12.427220145916666,23.629385709999998,-31.940247852499997
1970-01-01 00:00:20.288899333,0.2602223264538462,-1.1625574491461539,1.0723584805457689,-1.460181642843478,-0.9022497340260871,0.3923431264856521,2.458402607695652,32.48458091130435,-25.662733410869567
1970-01-01 00:00:20.538899333,-3.4484389342719997,-18.07123667016,0.16899856581960002,0.5085255632086957,0.6879444524,-0.7041631905734782,1.153738861428174,35.491299670434785,-21.8997817673913
1970-01-01 00:00:20.788899333,-0.4838687896476923,-0.3755459712257692,1.2480930386453848,1.5425100264500002,0.5926280753377501,0.6673548370333333,-0.27838754649999997,33.35923767,-25.15377617
1970-01-01 00:00:21.038899333,-8.666758152576923,-19.76626315169231,5.4496596820615375,-0.4292517275004348,-0.05643804564347826,-0.42695579433043485,10.66201811278261,21.190585592173917,-34.3317300552174
1970-01-01 00:00:21.288899333,0.006562353543280004,0.03206332399759996,-0.13053455204499997,-1.5663167797583333,-1.0282556377208334,0.3257450001979167,2.9376025497500002,28.780192692916668,-29.70331263458333
1970-01-01 00:00:21.538899333,-3.637441670585385,-19.137766272523077,2.4087333212307693,0.23357153266782613,0.21764988685217387,-0.16112207653000005,0.3640089138565217,35.80026543521739,-21.51268221130436
1970-01-01 00:00:21.788899333,0.45167673339239994,-0.10179431762159999,-0.1272653503376,1.6895506434565222,0.8010905345739129,0.17471287731130433,0.11104416849999998,35.954662320000004,-21.280942920000008
1970-01-01 00:00:22.038899333,-8.039948149723077,-16.585579340891538,6.182397484257692,0.04034208320416668,0.20668419867258336,0.34973152190833323,8.864563296645834,23.278450409583332,-31.3804393625
1970-01-01 00:00:22.288899333,-1.65797023310944,-2.73683671928828,1.3374567443955998,-1.249080097118182,-0.6897091669295453,-0.6145953028599999,7.234872503272726,24.54994453090909,-32.724148142272725
1970-01-01 00:00:22.538899333,-4.501865245923077,-16.40554986782308,1.9038275089807695,-0.7204781446941668,-0.4247260829083333,0.22711814320416668,1.8390350888541667,33.888223966666665,-24.22468582791667
1970-01-01 00:00:22.788899333,0.04676275633536002,-2.92154661265916,0.2388972107152,1.3171703777782606,0.0012444453589565238,-0.03183924019130436,-0.35162660352782604,33.1430510647826,-25.28873882913043
1970-01-01 00:00:23.038899333,-6.098376054479695,-10.309309756794617,4.8292114492884615,1.0553742752758333,0.5099990105991666,0.7128195166291666,0.5041738351666666,29.145089465833333,-28.678346470833333
1970-01-01 00:00:23.288899333,-4.4075424681112,-8.449730695116001,4.6537564639672,-1.074748989043478,-0.2441871324167826,-1.0972937286952174,6.11792591352174,20.310331924782606,-35.72202201521739
1970-01-01 00:00:23.538899333,-0.8796457669602309,-6.5424103722276925,0.9964087265346155,-1.103867145973913,-0.8199043740304347,0.18217374319565224,0.5308785957017392,31.196304818695655,-27.531130500434784
1970-01-01 00:00:23.788899333,-3.8497520916076926,-12.516579331211538,1.7205566990873076,0.5943857348363334,0.3706599123179167,-0.16656903077495833,-0.09423812230749995,33.61770820458333,-24.665136893750002
1970-01-01 00:00:24.038899333,-2.8583180969071997,-3.2007520017888,2.3465982240824004,1.3824016789782612,0.20951953072456525,0.8284523196934781,-1.0670316220000005,30.254058839999992,-28.795522689999995
1970-01-01 00:00:24.288899333,-6.770322963565385,-15.145159325396152,5.99177465531154,-0.7730463798166666,-0.3979302042866666,-0.5961985175435833,3.2055678566374994,21.688242436666666,-35.11592571041667
1970-01-01 00:00:24.538899333,0.18103952639159998,-0.7629274841184001,0.6073110902324,-1.0908113989478259,-0.41257428085434783,0.5007973986965217,-2.5598830554347827,29.67134185391304,-29.070964563913044
1970-01-01 00:00:24.788899333,-7.089067822815386,-19.18665691087154,2.5278509989401923,0.2870828120695652,0.4191186796017391,-0.3223538936608695,0.33344101386221753,33.01690275782608,-25.565273451304346
1970-01-01 00:00:25.038899333,0.7169371215975999,-0.17017212526066,0.411985272196,1.3404880117291667,0.39046819921000003,-0.13190753917554168,-0.9979665676625,28.32911761708333,-30.55522346416667
1970-01-01 00:00:25.288899333,-9.302215557923077,-17.210552779384617,7.7305185346,0.015551620226086926,0.08602067293130435,0.0582768988356521,2.388306348139131,23.912756050869564,-33.79929865956522
1970-01-01 00:00:25.538899333,-0.16589102782,-0.912059362848,0.22231768801599996,-1.2529367381874998,-0.5970434629329167,-0.07282437167208329,-0.9381580452883332,28.148775100416668,-30.383628765833333
1970-01-01 00:00:25.788899333,-5.215655910611539,-17.87453740048846,3.0655098551526923,-0.29520739907043475,0.022419759487826076,0.23164921409130432,1.3329735838565215,32.11890826000001,-26.829295447826084
1970-01-01 00:00:26.038899333,0.3237364020461539,-2.0312529111442306,0.8706817158076923,1.082576076595652,0.0629208894104348,-0.6021564129656521,-1.0143866953999998,29.430433687826092,-29.597279093913038
1970-01-01 00:00:26.288899333,-7.180921197468,-12.505013690476,4.461454357994,0.7989792491670832,0.8655560925049999,0.4792278106375001,0.5579613844666668,21.014371078333337,-35.979370754583336
1970-01-01 00:00:26.538899333,-2.21671723585,-5.9403047649846155,3.1812422648076923,-1.3755426302608695,-0.7984496134478263,-0.4503251599308261,4.524742292260869,20.98148155173913,-35.660018755652175
1970-01-01 00:00:26.788899333,-2.7878087218279997,-9.8015515681796,2.3991389649072,-0.61236249331125,-0.4336037151416667,0.6246944252566667,-1.25927262498875,31.41902979125,-27.560058672916664
1970-01-01 00:00:27.038899333,-3.0950330761538463,-10.624059078707692,1.0923016240415386,0.45339263245999994,-0.4635268931126087,-0.2808706118526087,-0.8140013632508697,31.528784626956522,-27.452393656521746
1970-01-01 00:00:27.288899333,-2.2854234373799995,-4.179704260072,2.2300026857160002,1.4852312278608697,0.5366649481652174,-0.03940294197086958,-2.691210207608696,23.35137790173913,-34.34191380391305
1970-01-01 00:00:27.538899333,-7.191495209188461,-14.525960416469228,7.157544655107693,-0.5672822593396667,0.3834998919154167,-0.6651472188216667,1.4454829593583334,18.274984201666665,-37.61429230458333
1970-01-01 00:00:27.788899333,0.10063273311880001,-1.4272160888824001,0.71055439451,-1.1637951110704348,-1.1156105379304346,0.7199577101721739,0.3465982520217392,29.108843761304346,-29.777418633043478
1970-01-01 00:00:28.038899333,-5.948451285665385,-17.33192730276923,2.775154037742308,0.3055159042695833,0.2318900693,-0.3850456804679167,0.15564695992041663,32.534085671250004,-26.454625606666667
1970-01-01 00:00:28.288899333,0.41717095009076927,-1.0389836531369228,0.7637291248461539,1.800500076773913,0.5450548309391305,-0.1923487193039131,-2.1672348147826086,26.022420801304353,-32.456058917391296
1970-01-01 00:00:28.538899333,-9.34228861112,-15.71860299692,10.890411273079998,-0.42366701617083335,-0.01054132354125,0.11493940556583333,2.3713943857083333,15.6334184825,-38.570577305
1970-01-01 00:00:28.788899333,-0.18096790608076926,-1.3129312838042309,0.06356013369230767,-1.3498847407565215,-0.7940150787221739,0.5112687560166521,-3.416682450689131,25.670232025652172,-32.70787371652173
1970-01-01 00:00:29.038899333,-5.472344201767999,-18.435441302644,5.984884369328,0.09971803955782606,-0.22741280239304335,-0.13256385176391303,-3.490317987391304,31.443649209565212,-27.54604430782609
1970-01-01 00:00:29.288899333,-0.38026116583807695,-0.753078196596154,0.15926304158423077,0.8121385220583331,0.927387010965,-0.5887369298804167,-4.344942073083334,27.22425373333333,-31.494523764583334
1970-01-01 00:00:29.538899333,-8.080592322000001,-13.7012481075616,8.228185400451999,0.8017633972565217,0.2308753533643479,0.5051425530730435,0.9548337562947826,16.829117195652177,-38.244239640869566
1970-01-01 00:00:29.788899333,-1.4516581843976921,-3.964344564169231,2.350625311199615,-1.4848535309083335,-0.6248973837624999,-0.2630033638210833,-0.7853141028458334,22.4115013275,-35.01378464791667
1970-01-01 00:00:30.038899333,-5.7261264586428,-13.830148059456,3.5261213925879997,-0.48817528726956516,-0.3270953773665217,0.6638982587782608,-1.7121221293869566,31.982556217826087,-27.006855922608693
1970-01-01 00:00:30.288899333,-2.1012726887153845,-5.197036936579616,1.12023008495,0.6480093454408697,0.3101892049066522,-0.5334344234217391,-1.8608102383913043,30.081725576521738,-29.12348100478261
1970-01-01 00:00:30.538899333,-4.128190384018077,-8.252028280555384,5.458059522146153,1.66378620411125,0.17379037539541664,0.1828287948541667,-3.2436163227916666,19.9048738075,-36.31544987416666
1970-01-01 00:00:30.788899333,-4.651080028952,-8.719547607780001,6.975428521748,-1.4506325404874783,-0.3287844445708696,-0.5523540548891304,-2.223215476313913,17.33317304695652,-37.810948081304346
1970-01-01 00:00:31.038899333,-1.2556753481653848,-5.456280529626923,1.278738925480769,-0.9607665197666666,-0.5141450683920833,0.411989113675,-4.838713149291667,29.45216695416667,-29.22785965625
1970-01-01 00:00:31.288899333,-4.480602538968,-14.221679864268001,2.1688937621936,0.631357681526087,0.7736531062373915,-0.632467392344348,-5.424893192565217,31.436500218260868,-27.12732638521739
1970-01-01 00:00:31.538899333,-2.692721610423077,-2.07009713405,1.8689097360550002,1.4246986936586954,0.6875814931130434,0.40721136540521735,-0.5503033140704346,21.845327625217386,-35.41611480652173
1970-01-01 00:00:31.788899333,-6.6457959960516,-16.446042278775998,8.119780828364,-0.8285821422954166,-0.30286662275,-0.2950528799391667,1.8714895247854166,16.317948102916667,-38.495567639583335
1970-01-01 00:00:32.038899333,-0.5118663377763462,-0.8795997092115383,-0.0010305492857692205,-1.2837283883913042,-1.1029951197217391,0.5899273933197391,-4.909191463304348,28.03598437,-30.49475445913044
1970-01-01 00:00:32.288899333,-6.59511738304,-19.28052993176,5.39547006244,0.3414200633787499,0.4803263191416667,-0.29178102687083335,-5.314313709708333,31.563202063333335,-27.076031445416664
1970-01-01 00:00:32.538899333,-0.001571731818846127,-0.4761655778499999,-1.3311414923957692,1.1459960419347828,3.0115478195043472,-0.6059275148256523,1.6276907919086958,27.022650510869568,-31.503504380434784
1970-01-01 00:00:32.788899333,-8.548555878757693,-19.683208940620382,4.450044162623076,0.0777715495773913,-0.18112196634478264,0.0722377273826087,16.73731882652174,18.96262135608696,-33.43782424913043
1970-01-01 00:00:33.038899333,-0.15069462900800004,0.018423687792400018,-0.22604793082000005,-0.994256316878375,-0.8383663563458335,0.1853653086925,9.637887280041667,22.152458190416667,-34.09281611375
1970-01-01 00:00:33.288899333,-5.758127834480769,-17.06804911695,1.205535384035,-0.348939342633913,-0.42142297286739117,0.1722757064686956,6.642838312217391,30.226411239999997,-28.289384675652176
1970-01-01 00:00:33.538899333,-0.043673181196000034,-1.7538907653837683,0.5037264953224,1.2401104215499998,0.32395067858,-0.4169743741495,4.474792361333333,26.515312034999997,-32.0138440925
1970-01-01 00:00:33.788899333,-8.596703831384618,-14.690819514183461,4.517018350226923,0.2638622401982608,0.61509287084,0.4326500296695653,9.420900884130436,15.307821066956523,-37.74100842608695
1970-01-01 00:00:34.038899333,-0.7664122374887999,-3.4590967712844,1.4328563598638797,-1.0361479353666667,-0.8619367269291667,-0.6805159645395834,6.396678110083333,20.716754197916668,-35.62268273
1970-01-01 00:00:34.288899333,-4.849517299738462,-13.38342095534231,1.7211496969730766,-0.6091378843043477,-0.20715502811217393,0.5912496599508696,3.8539334795217393,30.190963993478253,-28.80657726869565
1970-01-01 00:00:34.538899333,-1.7294795290799996,-5.724827160192001,0.757873992868,1.1748989250130435,0.7226251908086957,-0.6217585691796522,3.718826998782609,28.106412638695648,-30.780433239565227
1970-01-01 00:00:34.788899333,-6.022927181979231,-9.267827453301154,3.6597625613338463,1.1074897636541665,0.7295239623291666,0.7746278718291665,10.52115982825,13.468101660541665,-37.889616966666665
1970-01-01 00:00:35.038899333,-4.557912157342308,-8.03539991526154,3.6716340285884614,-1.2613956669173914,-0.7865615764530434,-0.876474318978261,11.873909514956521,14.891881114043475,-37.03460046652174
1970-01-01 00:00:35.288899333,-1.4367602418479999,-7.8336478455680005,1.1297367003239998,-1.0725286037583335,-1.0789803992833333,0.5849818674875,1.695921123070833,29.343847195833334,-29.686561901250002
1970-01-01 00:00:35.538899333,-4.2602331074307696,-12.185646355773075,0.9428259218953846,0.7004553766391305,0.298453078973913,-0.6070961498347826,0.960276354930435,29.832075366956524,-29.357122421304346
1970-01-01 00:00:35.788899333,-1.5394946043404003,-2.8018375490428,1.6000047728508,1.7518731743999998,1.2460868073304348,0.1639412256073913,3.720482639673913,18.33117435304348,-36.88801740608695
1970-01-01 00:00:36.038899333,-8.958708730996154,-15.803870297376921,6.0168302445499995,-0.7025540172716666,-0.4108727543458333,-0.23877962211916667,10.696315466958334,13.293670812916668,-38.2518688825
1970-01-01 00:00:36.288899333,0.874595269724,-1.0931827148632,0.44377316895999996,-1.5084538032521742,-1.6549529950695652,0.6114742723891304,-0.1320593252913043,25.119645161304348,-33.05235365130435
1970-01-01 00:00:36.538899333,-5.444645109411538,-19.32502110347692,2.5494464754923074,0.30707205332500004,0.20631231698083333,-0.5741982127574999,-3.7355538605416663,30.144539991666665,-28.882642269583332
1970-01-01 00:00:36.788899333,0.5075525390544,-0.10254276119559996,0.4475992126600001,1.5928506903956525,1.2897472823043479,-0.12617978272834782,-1.1469367482700004,22.938348811304348,-34.65180886478261
1970-01-01 00:00:37.038899333,-9.99168180626923,-17.0487968445,6.754288998715385,-0.09466320615169564,0.20040106640869568,0.19230185968739139,7.904885084782609,11.87026625043478,-39.41995454913044
1970-01-01 00:00:37.288899333,0.08961172836461537,-0.8931292665388463,-0.08352054888615383,-1.6356330762833335,-0.9038009668291668,0.064079603125,2.3504643838558335,21.009146769583335,-35.77583464041667
1970-01-01 00:00:37.538899333,-5.917081365756401,-18.693247192599998,2.8862619876148,-0.011143040674347793,-0.01519678711652175,0.18588551017565216,0.377565591227,30.318970391304344,-28.980447934347822
1970-01-01 00:00:37.788899333,0.04176315303384618,-1.6646767485830773,0.6504550640130768,1.1470690916458333,0.3532116490708333,-0.5697962967691667,-1.1048246820216667,26.0250925225,-32.69453136125
1970-01-01 00:00:38.038899333,-7.167790502876,-14.1549546203408,4.426181707336,0.4527906579569564,0.3023273931826088,0.4638837349152173,4.293918257182609,14.371580082173914,-39.061994137826076
1970-01-01 00:00:38.288899333,-1.7673862399438462,-5.471053654189229,2.146662914515385,-1.0846121712347827,-0.24492207547347822,-0.4621987225043477,2.5840531017826085,18.074718475652173,-37.63674860347826
1970-01-01 00:00:38.538899333,-4.117942694176,-11.541287768287997,2.060884369076,-0.7858066858854166,-0.4017052221570834,0.4630021179291666,0.9200163682220834,28.72731820708333,-30.443781534583337
1970-01-01 00:00:38.788899333,-2.5388070623038463,-7.623537157445769,1.0287817911257693,0.955032484721739,0.46764013298260865,-0.43860846368826073,1.3836318720308696,29.27237493956522,-29.692909654782603
1970-01-01 00:00:39.038899333,-5.262510553108,-6.2727956541292,2.623953460436,1.1845343145370832,0.6073711002755,0.7510716810524999,8.184816777458332,27.81675815666667,-29.808596769583332
1970-01-01 00:00:39.288899333,-6.3084066015,-11.778613938251924,4.949624510707693,-0.7784142112347826,-0.525253980423913,-0.8834525105292607,9.599780394608695,27.313566953478258,-29.889824163043478
1970-01-01 00:00:39.538899333,-1.0038931626203846,-3.5363902693461537,1.2627395042438463,-1.3080493898434784,-0.9715049370826087,0.5387872833639131,3.021381295304348,35.78627064043478,-20.7127464126087
1970-01-01 00:00:39.788899333,-4.85495007938,-17.304201727548,1.2397758728983999,0.34844531989583327,0.43642950185995827,-0.7738941602195833,1.3910550276987503,38.08042971375,-16.796476284583335
1970-01-01 00:00:40.038899333,0.24160335246153844,-0.5478319316433461,0.15284945566807695,1.49678953833913,1.8389449897391301,-0.34320751838043473,3.165139198304348,31.81989785869565,-26.112011205652177
1970-01-01 00:00:40.288899333,-6.314756396392,-20.87808579726,4.285893439076,-0.06892941505875004,0.028774682913749988,-0.21761796665808333,7.851222475291666,28.795506079583333,-29.104695399583335
1970-01-01 00:00:40.538899333,0.6896159362807693,0.029304445792307697,-0.4483752911138462,-1.7131399330521742,-1.2218897161434783,0.34884799959695656,4.876924659913043,32.860122431304355,-24.752261203043478
1970-01-01 00:00:40.788899333,-4.688011230548001,-20.600419208,1.8820542481559996,0.19697611280000002,-0.18499492110750002,-0.26319913354875,1.3286649585125,38.04704062208334,-17.009380977083335
1970-01-01 00:00:41.038899333,0.234838573691923,-0.038343341525384635,0.27234135552461536,1.6678823750434784,1.3046301253043477,-0.1328280943847826,0.17555879507391295,33.15791536478261,-24.77408624695652
1970-01-01 00:00:41.288899333,-6.014037743912,-19.563561365692,4.841017053184,-0.13565572026826087,0.38066532032173916,-0.3564473961617391,9.916263228434783,26.11240934347826,-30.870208491739135
1970-01-01 00:00:41.538899333,-1.0324894655373076,-1.1699267399965383,0.5387757638611539,-0.8842844316420834,-1.3246239569491667,0.030238979826250012,2.6855224668291666,30.139187257499998,-28.424409389166666
1970-01-01 00:00:41.788899333,-3.9210211942692315,-18.947097384884618,1.9478302351307695,-0.4459588456652174,-0.31314693203565214,0.270447190596087,-2.4604889413913043,36.92868987260871,-19.092536926521742
1970-01-01 00:00:42.038899333,1.1376462524231998,-1.3147280089228,0.12754077762040006,1.1386114954791666,-0.08417890563250001,0.29067296438416673,-0.3278209368716667,34.04703839625,-23.842380445416666
1970-01-01 00:00:42.288899333,-6.411478800405769,-12.57146903450769,5.090452810217389,0.5749795377649131,0.5257937529386957,0.43264556268652166,3.87476402773913,26.199215846956523,-32.06680911565217
1970-01-01 00:00:42.538899333,-1.79688136605,-6.0384729305516,2.3505440187244004,-1.0591023226891303,-0.8106153814391305,-0.6060333990234781,2.4784935245608697,28.135817072608692,-30.40029633652174
1970-01-01 00:00:42.788899333,-3.4404628282961536,-11.52675690847577,1.9263441469119227,-0.8863619789020833,-0.7619467594416666,0.52126177368125,-6.2247495850000005,34.48007170416667,-19.693758329166666
1970-01-01 00:00:43.038899333,-1.5809164673327998,-7.982438433696,0.9088200988596,0.820891971173913,0.5717767905108696,-0.48820309276956503,-6.781429394434782,33.72382023043477,-20.092826594347827
1970-01-01 00:00:43.288899333,-3.0484338258501538,-7.458424741655,1.9500467799676922,0.7530714235958333,0.8086922151583332,-0.15220582120841666,-1.1652136842041667,27.44193228,-28.93050829625
1970-01-01 00:00:43.538899333,-3.1566011989115386,-12.548157895023078,3.810614248380769,-0.39291762703173916,-0.18549369409973918,-0.32862586203956523,2.854795725469565,25.43105017521739,-30.801740894782608
1970-01-01 00:00:43.788899333,-1.4270125121544002,-2.996420910639572,1.4462804443424,-1.1035239398695653,-0.43746793688826086,0.7665022452939132,1.440112570163478,30.204970401304344,-26.663907589999997
1970-01-01 00:00:44.038899333,-5.071868379876923,-17.35998242316923,0.7424157539115384,0.2915556952458333,0.15023847027708334,-0.6172763865287499,2.7588493624833332,33.804682095416666,-22.162678400416667
1970-01-01 00:00:44.288899333,0.22976619867600007,-0.33141681516359994,1.9520906065839998,1.5159241711739133,0.15786200642695652,-0.025089108751304337,0.11917350603478263,26.984507768260872,-29.31445810130434
1970-01-01 00:00:44.538899333,-6.6745739973846145,-19.766384054846153,4.3846474634,-0.5141876751190041,-0.08468255397499998,-0.32316222204708334,2.0704368750766666,22.224328994583335,-33.21068700208333
1970-01-01 00:00:44.788899333,-0.11715836790199996,-0.25599765016959997,-0.0012933106240000185,-1.1438240434956521,-0.7291303679473913,0.6455960848208696,-1.5283784867391303,28.534778428695653,-27.91065406826087
1970-01-01 00:00:45.038899333,-5.586492444538461,-19.111449843028076,3.30783862175,0.2270699227908696,0.4588777662360869,0.021643824090434773,-0.5603449448086956,32.23206735652174,-23.816251092608695
1970-01-01 00:00:45.288899333,-0.20045622600384613,-0.10425243669003836,0.16348886932730775,1.3018194499083335,1.8414212831,-0.31633038273374997,5.74073402125,28.594493469166668,-27.13356200791667
1970-01-01 00:00:45.538899333,-6.6217619747239995,-18.73735147764,3.648704479964,-0.0403560507987826,0.11486078837347838,0.13205117749304354,15.461510285652173,20.430036295652172,-30.79691414217391
1970-01-01 00:00:45.788899333,-1.2158984492461538,-2.4753908595892304,0.24403291554807696,-0.7590022787945833,-1.6511116152416667,0.47617055415625,8.128284116375,23.2699267075,-31.501277208749997
1970-01-01 00:00:46.038899333,-3.8281812560663995,-15.976396911656,1.384662579496,-0.7213214603782608,0.41275675069565215,-0.28019905173434784,1.5160150114478264,30.94064140304349,-25.347228423478263
1970-01-01 00:00:46.288899333,-0.9525153879423077,-5.1049208005999995,0.5005590820449999,0.9681793866173914,0.5089109824330434,-0.15773627192030434,4.218231988913043,29.565878576956518,-26.647660877391303
1970-01-01 00:00:46.538899333,-5.244601794212,-9.71682176499692,1.6016872741576,0.42163750399899996,0.8466404441791666,0.3432270907354167,10.418850402583333,21.865006445833334,-31.74943105333333
1970-01-01 00:00:46.788899333,-3.2013235823146156,-9.644576691411539,2.043285581011539,-0.522833850203913,-0.8702013019521739,-0.6970948590330434,8.996023675304349,22.505368108695656,-31.775261257826084
1970-01-01 00:00:47.038899333,-1.5401645190999997,-6.498206141569231,1.1129759392346155,-0.6664341500670833,-0.6885641642741667,0.6486570540654167,2.6319181522500004,30.102384806666667,-26.271840890833335
1970-01-01 00:00:47.288899333,-4.466675500459999,-15.4287816832224,1.564977612342,0.38457479037391307,-0.028422846443913054,-0.5406598423434782,3.156260469556521,30.64598166434783,-25.591639063478258
1970-01-01 00:00:47.538899333,-0.43181165841,-0.7989808185265385,0.7593363366330769,1.6387753733521742,1.0274980146478259,0.020400005551739132,2.445100970935217,28.69059645652174,-27.618199474347826
1970-01-01 00:00:47.788899333,-10.1297830079024,-18.6491189568,4.611179003744001,-0.5841277722845833,0.018108556580833324,-0.02092969920666668,7.6667513053333325,26.722073793333333,-28.671396572499997
1970-01-01 00:00:48.038899333,1.0745577533153845,-0.4760504326615384,-0.02054765556846154,-1.5636448549130437,-1.6921871720608692,0.2784316993373913,-0.7592274936043478,33.25944651869566,-21.534628038695654
1970-01-01 00:00:48.288899333,-6.192784039574,-19.92694570308,2.5063759643436,0.40697648314999996,0.12872268038158333,-0.11273929412541676,-0.6754811605054166,37.170961220833334,-14.578899503333332
1970-01-01 00:00:48.538899333,0.6209030561769231,-0.5349414297579614,0.19275877148769227,1.442824534695652,0.8480545172304348,-0.6018318516766349,-4.2587584826521745,31.502937235217384,-23.800900086521732
1970-01-01 00:00:48.788899333,-7.3036005458461535,-18.400986874700003,6.006254161311539,-0.237967772335,0.13062114017041668,0.15696922441666664,1.5859023928458331,26.415206511666668,-29.86196128583333
1970-01-01 00:00:49.038899333,0.507049584992,-0.364270495648,-0.774938507072,-1.394092040121739,-0.7380683642178261,0.2392384092326087,-2.5192813665869567,31.10769810826087,-24.499818717826084
1970-01-01 00:00:49.288899333,-7.099678450657692,-18.81907898503077,1.6774463475692305,-0.19044328412869566,0.2453227937308696,0.2637606079469565,0.6502054048956522,37.473046178695654,-13.736074116521737
1970-01-01 00:00:49.538899333,1.287448736504,-1.3866324829308,0.36027680051120003,1.0965446097083333,-0.32182794624833333,-0.4379246899229166,-0.5789534250620832,34.29711651833333,-19.636695504583333
1970-01-01 00:00:49.788899333,-6.99213861911923,-14.464294422038465,3.77738335285,0.2944655586460869,-0.04233455270869563,0.3458133399682609,3.139218786447827,25.66744074652174,-29.934262068695652
1970-01-01 00:00:50.038899333,-1.0446715942399998,-4.9642108704767995,1.3432946045972,-1.078144845875,-0.4347136849201667,0.014348249425000006,0.24417114249125005,27.51016394375,-28.512841065
1970-01-01 00:00:50.288899333,-4.358261947623077,-12.448776097973077,2.657913225355,-0.3186459900652174,0.518669530553913,0.1663617883291304,1.658284477714348,31.085174227826087,-24.737316379130434
1970-01-01 00:00:50.538899333,-1.3531975497796154,-7.227846539526924,0.8256599542692307,0.9853277906999999,0.463055392305,-0.8362468104565217,0.12282359085043479,31.96429484782609,-23.346240997826083
1970-01-01 00:00:50.788899333,-3.5840928404035997,-8.053229223696,3.311844982904,1.0051915326845833,0.11373570076666667,0.555747998332125,1.6523840625816666,28.6521615175,-27.045829614166664
1970-01-01 00:00:51.038899333,-3.251561420023077,-10.805654526083076,4.868827144920692,-1.0673256931372608,-0.9659940205043478,-0.24266944087869569,0.8945244083695655,29.589297086956524,-25.90036541391304
1970-01-01 00:00:51.288899333,-0.6947652283226798,-6.592189471468,0.5504114135438402,-1.0168969845291667,0.11654412403791668,0.32370289027625004,-1.0931016206168043,36.37958431166667,-14.864852825833333
1970-01-01 00:00:51.538899333,-4.329268393696155,-12.89185471153077,1.6870321830653847,0.7850256108739132,1.8492192651782606,-0.2892612662456522,1.7204138092408694,36.91198183086956,-13.72092595347826
1970-01-01 00:00:51.788899333,-2.2919558533312,-2.8381640078399992,1.1362511535388,0.9867259632521739,0.49515255377782624,0.8546475204547825,6.63894075947826,31.48114743391304,-22.470809190434778
1970-01-01 00:00:52.038899333,-5.344416997330769,-17.884198079992306,3.902597967219231,-0.40458782609124994,-0.8323475675045833,-0.8348360198208334,8.583020926166666,30.161455472083333,-23.59730084875
1970-01-01 00:00:52.288899333,0.5105594400115384,-0.46058643637384616,1.0258974046092306,-1.2938060385260868,-0.6570999634152175,0.3746522733056522,-0.6955683127721737,35.37425306565217,-17.06564633652174
1970-01-01 00:00:52.538899333,-6.155301983203999,-20.364234356887998,0.6346741882,0.5621477039645834,-0.5942828368756209,0.003586228121291705,0.4451255003466666,37.077578386249996,-13.4335535775
1970-01-01 00:00:52.788899333,0.5588685958430768,-0.6446344756891154,0.4274361419917308,1.1049547512565217,0.5932326940530435,-0.05484931737608698,-1.1914254893238259,33.388425080869546,-20.740990430869566
1970-01-01 00:00:53.038899333,-7.6980358522799985,-19.29247509168,5.572731445084,-0.2833763887676522,-0.04218962367652173,-0.13233422451,3.508578818808696,29.946453756956522,-25.410329155217394
1970-01-01 00:00:53.288899333,0.9951191007007693,-0.7157941906730769,0.056386589619615395,-1.0287100269125,-0.5829625825416667,0.4704124550605833,-0.6818337043158333,26.51428087541667,-29.261904080833336
1970-01-01 00:00:53.538899333,-6.183114147644001,-19.54087454208,2.598620141362,-0.08544421006260869,0.13208770785869564,-0.10201995141739131,0.25898634869765214,30.70229596608695,-24.586110903478257
1970-01-01 00:00:53.788899333,0.8951961224138463,-1.0891178600673077,0.5148370831225769,1.1878730741791668,0.2791578016895833,-0.29166332395125,-1.5983727773620835,30.8167361425,-24.414874555
1970-01-01 00:00:54.038899333,-6.861431580007691,-14.555454853223075,5.069985756231154,0.15223217640478262,0.3539767990795652,0.43716168145652173,2.2133750501000002,22.58609448434783,-32.220212107391305
1970-01-01 00:00:54.288899333,-1.283957995512,-4.939099090576,1.2252141540664,-0.9372734479913044,-0.6072626994869565,-0.4962940274391304,-1.4879322051526087,23.94833680869565,-31.176093142173908
1970-01-01 00:00:54.538899333,-3.9686279654038463,-13.181577229938462,2.3955722278500002,-0.48566647339212504,-0.1865504042166667,0.5374838585791667,-3.38670206065,31.649807215833334,-23.24916275375
1970-01-01 00:00:54.788899333,-1.2992801330419999,-6.767103736111999,0.6992139769684,0.9940541201578258,0.4778291262300001,-0.6223701925521739,-1.9604169596530439,32.333233543043484,-22.744448620869562
1970-01-01 00:00:55.038899333,-5.263233894868846,-8.695245067926923,2.659220123371539,0.7562337353370833,0.6408616981291667,0.35377197045666664,1.716944694495833,23.356353522083335,-31.847080707499998
1970-01-01 00:00:55.288899333,-2.428417387662307,-10.08970488950769,3.7144392452499995,-0.6301676794865216,-0.42889449310913047,-0.5080993871752174,0.6377084359526088,23.171479350869564,-32.110077483478264
1970-01-01 00:00:55.538899333,-1.6609699951199999,-9.142011090323999,2.4496978269920002,-1.1379166473165214,-0.5165252047691304,0.19297697181217388,-1.7408957688695652,30.634520903913046,-24.999235899130436
1970-01-01 00:00:55.788899333,-2.006174292984615,-9.337403922159538,0.5099146271384615,1.4058291289383333,0.691771508215,-0.34147437588333335,-1.9174942970583333,28.88553023333333,-25.93353668916667
1970-01-01 00:00:56.038899333,-5.1852532105232,-8.025806250072002,3.51036815236,0.5576807130826087,0.42868333155869565,0.4183454869755653,8.036248289869567,15.995043465217389,-34.49944620565218
1970-01-01 00:00:56.288899333,-3.5340700942403847,-10.442054865700003,5.099629880692309,-0.8822431061083332,-0.5254697569875,0.062203636534999975,4.2474406956249995,18.043259860000003,-34.29201086333334
1970-01-01 00:00:56.538899333,-0.42452319951600004,-7.6338672912079995,0.6631090577479999,-1.1283479502130436,-0.504100856852174,-0.13780716643739127,0.2136604890513044,28.887642239130436,-26.070195321739135
1970-01-01 00:00:56.788899333,-5.2888997534230775,-12.293900088115386,4.958945511957692,2.512064041029167,0.5734152873941666,0.6031298519229167,4.384070237488333,20.265509605416664,-31.92716527
1970-01-01 00:00:57.038899333,-1.260620833246154,-3.218054175776923,1.7322093904307692,-0.4948870413330435,-0.2055095119891304,-0.8189577777391308,4.704086386608695,13.621225149565216,-36.25535086
1970-01-01 00:00:57.288899333,-3.288469592648801,-16.05936637456,6.980482013212,-0.3134951781,-0.30181151611782614,-0.026887806702608697,-1.763820938330435,18.021496068260866,-34.54411100347826
1970-01-01 00:00:57.538899333,-0.4690380917653847,-0.99113507789,0.22250076894615387,-1.5432530690666668,-0.6150095038336666,0.34831594861666665,-0.8970163266116667,24.802712598750002,-29.80427368416667
1970-01-01 00:00:57.788899333,-6.287057995788,-19.13443374128,2.7960056765732,0.2812649755686957,-0.44336064546956516,-0.2437539304856522,-2.1818176352434784,30.40443412086957,-24.36381406304348
1970-01-01 00:00:58.038899333,0.16134716919346148,-1.3682470232984616,0.47248668968884616,1.3562519648708333,1.2470411471375,-0.052189065152500026,-5.002343257229583,24.615808010416668,-29.419558525416665
1970-01-01 00:00:58.288899333,-4.767631812741538,-16.83470167307692,5.58882989115154,-0.4861077044347826,-0.5787904032404347,0.040390602595652206,0.20897384313739148,20.337386836086957,-33.228417106521746
1970-01-01 00:00:58.538899333,-0.3721201721552,-1.0070697875719998,0.09154962158600002,-1.2682220573391307,-0.09546887227217393,0.4974980062695652,-0.7781362534069567,27.18511946347826,-27.789121130869567
1970-01-01 00:00:58.788899333,-4.665826210623077,-18.545234985038462,4.930297394188462,1.4424793059208334,1.1792780036250001,-0.10022807521124999,1.4905046225125,27.44195763208333,-27.004838942916667
1970-01-01 00:00:59.038899333,-0.875235937092,-0.14725777590080003,0.3703179199264,0.9257078883478261,1.0454615795747824,-0.8264850837608696,13.43550267421739,16.764582342173913,-32.5599512847826
1970-01-01 00:00:59.288899333,-4.109859272842308,-18.666690110615384,5.817018831561539,-0.49352168124708334,-1.2415037419141666,-0.5187715788833334,6.775240282193749,18.606078149166667,-33.15085999083333
1970-01-01 00:00:59.538899333,-1.01003362426028,0.034260754412000057,-0.2294488586176,-1.2379294886130436,-0.6903129742217393,0.7408232319565218,2.013368938265217,23.76546345652174,-30.718243143043477
1970-01-01 00:00:59.788899333,-5.405242432899231,-19.871252518076922,2.0377413412615386,-0.15942290752608684,-0.06757056846521739,0.18333673071208698,0.6771115013108695,30.79966694434783,-23.968992730869562
1970-01-01 00:01:00.038899333,0.5894453958279232,-0.2201690791046154,-0.04194162811423077,1.4057103470416665,0.8646157658600835,-0.09139306473749999,1.7239597638404167,25.506989002499996,-29.203904866249996
1970-01-01 00:01:00.288899333,-9.11693523588,-17.600459655172,4.991100952432,-0.08920326928217395,0.4543537740846957,-0.01653305572608696,10.536786349043478,17.67251023043478,-33.15380212434782
1970-01-01 00:01:00.538899333,-0.6221293522750001,-1.3305254657088463,0.30805938716923087,-1.1161624812745834,-1.2581659120958333,-0.049245437748333336,5.3193707267458334,22.94684298916667,-30.837001165
1970-01-01 00:01:00.788899333,-4.47507603209092,-18.558635119399998,1.54490734867764,-0.43138048640869564,0.031985288065217325,-0.0724877369734783,-1.0342008756695649,31.30059789521739,-23.25743103
1970-01-01 00:01:01.038899333,-0.09875425490384618,-2.0614324600192306,0.28898558985192313,1.3020761324260868,0.7603095770434782,-0.3277177205915652,0.42591509612391315,27.48005435695652,-27.54310914652174
1970-01-01 00:01:01.288899333,-6.921491300196153,-15.895738871726154,3.499031419121923,-0.02378953120000001,0.164655003075,0.383832673875,5.873248914958334,19.934311628333333,-33.0015842125
1970-01-01 00:01:01.538899333,-0.3558999023338321,-2.7486681149872005,0.31717243650960003,-0.8715800723156523,-0.9708516701956521,-0.10958912514347825,1.365245072767827,23.910944565652176,-30.660159649565227
1970-01-01 00:01:01.788899333,-3.9873160257607694,-16.52382122903846,1.6296495874011538,-0.2862381988091667,0.062037519615416654,0.15053014213333332,-0.6380787690374167,32.24904918708334,-22.9351794725
1970-01-01 00:01:02.038899333,-0.4642805235879999,-3.113513415392,0.563931298844,1.0471163379086958,0.6761530660817392,-0.6815865185752176,-2.315990676017391,30.769324924782605,-25.273418757826086
1970-01-01 00:01:02.288899333,-4.723634842788462,-13.699396573642307,3.749903958021923,0.3274793441147828,0.09167648806260874,0.31593652378869563,-0.20199605696347814,26.42620559217391,-29.942538966521727
1970-01-01 00:01:02.538899333,-0.4804720071192307,-5.425542526324422,1.720263079128846,-0.6816129125666667,-0.7572038486602918,-0.3739165756041667,-3.7300904392916667,28.340277671666666,-27.830530961666668
1970-01-01 00:01:02.788899333,-3.0418065303708,-13.439628149724,2.0692908875120004,-0.6651956360670436,0.2624252677786956,0.5500914367621739,-3.7626047548695647,29.339798803043475,-26.772176078695654
1970-01-01 00:01:03.038899333,-1.2714559936953846,-7.194719273174654,0.31294729972653845,0.7020015359249999,0.16929507256375,-0.5208629447737501,-4.351864258333333,28.256889422083333,-27.74900523875
1970-01-01 00:01:03.288899333,-3.2477003722916,-9.915195245088,2.36183653574,0.5234449252852172,0.35825477248695653,0.5175579316652172,-2.9442579020695643,21.110517502173913,-33.66260818826087
1970-01-01 00:01:03.538899333,-1.7509377523412306,-10.014589938057693,2.304452097985,-0.606655955326087,-0.8733966924217392,-0.37481919045478246,-3.270861086643478,23.397748699565216,-31.830379402608692
1970-01-01 00:01:03.788899333,-2.2340083557807997,-8.8815167905864,1.489504559232,-0.73149613485,-0.6069245835541667,0.6853038238724999,-3.6086041927916668,32.28688136833333,-22.524417320833333
1970-01-01 00:01:04.038899333,-2.200769629903846,-11.838558514167694,0.6167751019230768,0.7409292349391303,1.0775672500747826,-0.3295169600595654,-1.8662684067913047,32.682549268695645,-22.308004295652175
1970-01-01 00:01:04.288899333,-3.3195431285153845,-4.997392484226922,0.747136705861923,1.0540389337541667,0.5255716188214583,0.5007489554891666,2.6095673243458335,29.355397938750002,-26.408960659166667
1970-01-01 00:01:04.538899333,-5.1678414189112,-14.507244031531998,4.873248028312,-0.5010321373434782,-0.5767126135691304,-0.7349695228856521,1.2010943786086963,29.188844100434782,-26.63563322
1970-01-01 00:01:04.788899333,0.07145909230769223,-3.4724098553897695,1.2927808791076922,-1.2145912158826087,-0.9981056374378262,0.736898092453913,-2.3797203354478267,35.008840644347835,-17.989842456956517
1970-01-01 00:01:05.038899333,-5.1367301145456,-15.992383667192,0.8935099364379999,0.7112986656625001,0.8778996048933334,-0.5879776712414166,-4.055935164291666,36.34769566791667,-15.155433613333335
1970-01-01 00:01:05.288899333,-1.738369657001154,-2.030377807278077,0.7105205418761537,1.2452290481913044,1.256374417469565,0.6903713553043477,1.5446106040043475,28.17880730086957,-27.322338601739133
1970-01-01 00:01:05.538899333,-8.056200890346153,-17.29915122991539,4.610095948303846,-0.142036025164625,-0.2485535777375,-1.0095944229324998,8.41892547385,26.261590322083332,-28.316589593333333
1970-01-01 00:01:05.788899333,1.0110694702786,-0.34330209952279994,0.24683670046795997,-1.2800064578869568,-1.695038927047826,0.5350991925452174,-3.659219866242087,31.36858210391304,-23.645958195217393
1970-01-01 00:01:06.038899333,-6.339317321946153,-19.370238612562694,1.7908585827719234,0.19994304545,0.5206608238041667,-0.17018092157916662,-4.5053595105,35.85657215125,-16.34350645625
1970-01-01 00:01:06.288899333,1.280952246064,-0.3794249816881601,0.33163835454560003,1.3388855754869566,0.3417041028043478,0.13846801349826088,-6.178276041304349,31.392840177391303,-23.181063859130433
1970-01-01 00:01:06.538899333,-8.424475444254615,-17.760635797788463,6.372933954153846,-0.007813077669391327,0.8275220550986956,0.14360780895043482,3.5815775290673915,25.43299998347826,-30.08943740217391
1970-01-01 00:01:06.788899333,-0.2894173841896153,-1.658700714176923,0.19055949865292304,-1.0321390107625001,-1.5365544731208332,0.3898706408166667,0.453158736185,29.35807887625,-26.406377952499998
1970-01-01 00:01:07.038899333,-5.946863434088401,-17.68185439476,3.2060150575,-0.5991906869104348,0.12279605346521738,-0.0441831930230435,-2.126912282913043,35.55153258,-17.376547605652174
1970-01-01 00:01:07.288899333,0.21358853270000003,-2.1485858389346153,0.40212147637730766,1.0600748559541666,0.7447713122958334,-0.059389426671666634,-2.9958155552662498,34.10247707333333,-19.796413184166667
1970-01-01 00:01:07.538899333,-7.8927389649399995,-15.081479901216001,2.27957958952,0.6913480136739131,1.7455870495391301,-0.3503941005465218,7.363328975695651,26.677782141304345,-28.178886912608696
1970-01-01 00:01:07.788899333,-1.6084571190923074,-4.133809468011538,1.0902117391719233,-0.889250164158261,-1.0376995326730434,-0.0793771434678261,7.6832119686521745,28.613932982173914,-26.245807979130433
1970-01-01 00:01:08.038899333,-4.390347148923078,-14.863853917803848,1.145763526369231,-0.8536110024416667,-1.1724127478745834,-0.09654094456708336,1.3811217943916667,35.10512860625,-18.01349079541667
1970-01-01 00:01:08.288899333,-1.198012719616,-5.0789323056368,0.801283721918,0.8874569301521739,1.2273421493352175,-0.3891626475034781,-3.1485426115256523,33.91977617130434,-20.158655083043477
1970-01-01 00:01:08.538899333,-4.368003229049999,-10.904829060864614,2.92119841368077,0.7952612278250001,0.4180721541104167,0.40754214953083334,2.6461187402625,26.80755090625,-28.99830762541667
1970-01-01 00:01:08.788899333,-3.479358636396,-8.513210687248,3.153857519428,-0.6238422993604348,-0.45902369641217394,-0.8241989794086956,1.9177209293478257,26.59017032130435,-29.221156245217394
1970-01-01 00:01:09.038899333,-2.1737796020576927,-5.988297271700385,1.3113250086664616,-0.9401400299521739,-0.5098691139113043,0.45735175714782594,-1.2442458091086954,33.08799743782608,-21.577199024347824
1970-01-01 00:01:09.288899333,-3.8359461858653847,-14.004646418442308,1.2880944706753845,0.5488289833675001,0.08131954029383333,-0.2689712923,0.2517628271666667,34.08799990041667,-19.761760631250002
1970-01-01 00:01:09.538899333,-0.5630511292056001,-3.5759976745040003,1.0933683288348,1.1830466117486953,0.5380866313652174,0.3096553680634782,3.8166231486956517,26.777755903043477,-28.11476533391304
1970-01-01 00:01:09.788899333,-6.736671787811539,-16.72394929145769,3.705786085878846,-0.4753220581041666,-0.20907803005133332,-0.41865202939583335,8.323551972999999,22.619283675833334,-30.717118580833333
1970-01-01 00:01:10.038899333,0.9778505493227999,-1.146621588224,1.6312657651392,-1.0575676825869567,-1.3311078722737393,0.588370257053913,0.9921020839313042,26.56752238086956,-28.229440855217387
1970-01-01 00:01:10.288899333,-4.496378578384616,-18.962785914026927,1.5149477269,0.25777113206086955,0.13681722881086958,-0.6682075524791304,-2.7182633773043476,29.51083531565217,-25.20218782869565
1970-01-01 00:01:10.538899333,0.2573724834853846,0.08264544562,0.9114776493346154,1.3654269030000001,1.2537705451358334,0.3412697034370833,1.1780403852004169,22.3569465875,-31.388136386666663
1970-01-01 00:01:10.788899333,-6.8179260499028,-20.040780981199998,5.7206777892680005,-0.41156468732695656,-0.3148365252417826,-0.450435153826087,6.776497820130434,17.664499448260866,-33.96606876608695
1970-01-01 00:01:11.038899333,0.004093410734999985,-0.3400755016742308,0.06521822413686924,-1.0266190233249999,-0.32294529352458334,0.28770680292083334,1.161149104375,23.252964495833336,-31.033687592083336
1970-01-01 00:01:11.288899333,-6.118843798627999,-19.48587890616,2.6991031861456,-0.23980445388130425,-0.4677113968478261,0.05357285297826087,1.3496030309399998,29.524666412608692,-25.321340229999997
1970-01-01 00:01:11.538899333,0.9273964690923076,-1.0026208084923076,0.5993651521692308,1.0989061890434781,0.7915576926982608,-0.30074126564782605,-1.4798642862826086,27.05560070608695,-27.815210922608706
1970-01-01 00:01:11.788899333,-7.737899339869231,-15.966743140769232,4.831122858523077,0.42610246694208337,0.5904431076750001,0.27217396956125,6.087245563625,20.055633265416667,-33.62934653083333
1970-01-01 00:01:12.038899333,-0.388999072328,-3.1589409487632003,1.4765175658760001,-0.959096525669565,-1.1049221624956522,-0.4219702945467391,-1.037528121047826,24.975239877826088,-31.116540825217395
1970-01-01 00:01:12.288899333,-4.392051298019231,-15.367464346692307,2.460231998163808,-0.6947357618558333,0.00737159077500001,0.21790389657470835,-3.9125594496666665,33.051086505,-22.30966353291667
1970-01-01 00:01:12.538899333,-0.07063511377640001,-4.1513592035924,0.5300657226326,0.7070125862804346,-0.11729202033999994,-0.28800913804034783,-6.0845826398260865,32.92927484869565,-22.07085891347826
1970-01-01 00:01:12.788899333,-6.266148324061538,-11.051028882807692,1.9502885848465386,0.6028489412291304,1.4129190243834784,0.6749937775052174,1.4252760099608697,25.729738982173913,-30.214328019130427
1970-01-01 00:01:13.038899333,-2.573062749534616,-8.521145571269232,1.195132017853846,-0.5599586503324999,-1.0469856808416667,-0.4856602251491666,2.5541923444083334,26.614259561249998,-29.709518829583335
1970-01-01 00:01:13.288899333,-2.5176924316919997,-9.133239331536,0.8943601688360002,-0.7486710704,-0.8564591544391303,0.4513592350695651,-2.4065904203869564,33.31552182086956,-22.12750476304348
1970-01-01 00:01:13.538899333,-3.0421123560715384,-10.927092379442692,2.4289758419307694,0.56844188767375,0.7105096762270833,-0.5727316932358333,-4.992484549666666,33.068040450000005,-22.13584335666667
1970-01-01 00:01:13.788899333,-3.854885723912,-5.655293756093199,0.12509187009599998,0.7209506766086955,1.0193476934569565,0.47122752631373915,-1.5562148922739139,26.359767331739132,-29.8925665973913
1970-01-01 00:01:14.038899333,-4.932180017296153,-14.895616713916535,4.0910272805192305,-0.010970949764739118,-0.2085400071773913,-0.8093344310434784,2.981445042977826,25.020669024782613,-31.176089909130436
1970-01-01 00:01:14.288899333,0.6046733445594231,-2.2663620755846154,0.3457406440076923,-1.3606756701708334,-1.2283371960041667,0.96147043293875,-0.8074228167458332,30.765959580833336,-25.37011520125
1970-01-01 00:01:14.538899333,-7.987539825668,-17.848577692676002,1.0125364196560003,0.506674863576,0.4067496870204348,-0.559644171377826,-1.0195033446952173,34.14696436347826,-20.969469734347825
1970-01-01 00:01:14.788899333,0.3175934072653846,-0.7353631122027692,0.9317374420023076,1.4689490546500001,0.1777715405025,0.43761232618333334,0.04340708260416667,27.29668569541667,-29.048363447499998
1970-01-01 00:01:15.038899333,-9.181786377200002,-18.6298689884,6.851426385404,-0.2553048846478261,0.010832537599130401,-0.4943988826969566,1.9587046374956523,21.35223811565217,-33.89958224043478
1970-01-01 00:01:15.288899333,-0.6744743465076923,-0.46496195275769225,0.1076434619846154,-1.2893017841043477,-0.7481556349965217,0.4026444783117391,-4.6149320602173916,26.91017325086957,-29.148831823043476
1970-01-01 00:01:15.538899333,-5.087821742923077,-18.396329251461538,2.9255739299769234,-0.08074813542833333,-0.01109212204583332,-0.2409586497707709,-5.755329092375,33.5866403575,-21.182363034166666
1970-01-01 00:01:15.788899333,-0.16536412353736005,-0.7753755981712002,0.3836042908242,1.3883827484173914,0.6318793196604348,-0.16525109196043483,-5.649008274130435,28.595358392173917,-27.275943673478263
1970-01-01 00:01:16.038899333,-8.406512797617692,-16.081007449526922,5.778520044311539,0.23705906834808332,0.5625596007643332,0.12533536302083334,1.9361177285500002,19.834376415416667,-34.71647230833333
1970-01-01 00:01:16.288899333,-1.4098042968476,-2.231044518804,0.8825706847796002,-1.113367230921739,-0.8722026911695651,-0.19195863312173908,-1.9574244126734783,24.032983033913048,-31.86562380652175
1970-01-01 00:01:16.538899333,-4.973430773770769,-17.301362016653847,1.91333849978,-0.6051084946598696,0.05437057423478267,0.1862705314543478,-4.302801194434783,32.85574622826086,-22.523316673913047
1970-01-01 00:01:16.788899333,-0.42810974119230766,-2.2473631224595385,0.7422372789099998,1.2117878099291668,0.2791599904583333,-0.6368979331845416,-7.950652202,28.951607147916665,-26.3658861325
1970-01-01 00:01:17.038899333,-4.47075900859644,-12.719942742539999,4.03837415784,0.39548400164695663,0.74942737876,0.4047682718943479,-4.445433803247826,20.933968171304347,-33.917383111739134
1970-01-01 00:01:17.288899333,-2.9553389562884615,-6.840993311665385,2.1404911333830765,-0.613062165275875,0.400005305815,-0.3401815107729167,3.285786569083333,21.472889661666667,-33.71215438875
1970-01-01 00:01:17.538899333,-3.8547839351744004,-9.775769183216,1.8138919920079999,-1.2202243223841738,-1.4577277879334787,0.5924542999826086,-0.3353253862347826,30.78819001217391,-25.48411725956522
1970-01-01 00:01:17.788899333,-3.03395432125,-10.775820411498076,1.0081017185438461,0.657671176361125,0.5176494568220833,-0.44207656584333327,-3.6250764131249995,32.246679227083334,-23.601236024583333
1970-01-01 00:01:18.038899333,-3.1425650023732112,-4.590705501913846,0.50851561326,1.1298369372926087,1.1174197624521738,0.2757895593708696,1.5346872702304346,22.315181896956524,-32.867128620434784
1970-01-01 00:01:18.288899333,-7.382462090624001,-14.786215905819999,3.8199124512400005,-0.19280286830304347,-0.19407492538173915,-0.5847749687217391,6.759897159391306,21.307461615217388,-33.31937408478261
1970-01-01 00:01:18.538899333,0.005526968109946095,-2.7325733537961536,1.736066753681154,-1.357309441639125,-1.1989726846291666,0.56018696297875,1.7746334374208335,29.302782376249997,-26.898913303750003
1970-01-01 00:01:18.788899333,-7.754612200574801,-18.08889395208,0.5762177490479998,0.31036940468565216,-0.06067505546521744,-0.8666679640060871,-1.7358073565752175,31.914895181739126,-24.11002673347826
1970-01-01 00:01:19.038899333,0.3293324573211539,-0.8283140505834615,0.7862342482015385,1.3678329853041669,0.8402553890408333,0.03023031370762502,-4.242161899791667,25.87334609,-30.04762983291667
1970-01-01 00:01:19.288899333,-9.302440091566154,-17.954649652384617,4.331974305179231,-0.3128732076821739,0.0645700958269565,0.041901590391304366,3.573742617644348,18.75472466826087,-35.19901242391305
1970-01-01 00:01:19.538899333,0.7856143066084,-0.9890293030771999,0.0031434631672000004,-1.1804171490217392,-0.6324298164608695,0.1774736934130435,-1.7402832715073913,25.54066823913043,-30.754163906956517
1970-01-01 00:01:19.788899333,-9.096986565000002,-16.897778196834615,1.8042442086653847,-0.06466526560654169,0.6337673464833333,0.04321922271958334,0.24567397444166672,30.983791669583336,-25.39723483666667
1970-01-01 00:01:20.038899333,2.2694366821194,-2.7147965517496,0.3979324951,1.2870257989391303,-0.060468180925652155,-0.49999695581086956,-3.4949350564304353,27.577236175652175,-28.64118443391305
1970-01-01 00:01:20.288899333,-8.268620699384616,-14.056588404771535,4.3683544219307695,0.2545879227355,0.4801891541227917,0.5973444103835418,3.9683805803983336,17.704125722083333,-35.70380576416667
1970-01-01 00:01:20.538899333,-1.9508067380342309,-3.4751503112192306,0.7265890502603847,-0.886227699943522,-1.021593447590435,-0.652379090373913,1.8491778893130433,20.10864299304348,-34.3844606973913
1970-01-01 00:01:20.788899333,-4.110236719016,-15.615503393760001,2.160397430448,-0.6401392532173913,0.10545030561782606,0.2746403748543478,-5.522736756782609,29.619342057391304,-26.37206044347826
1970-01-01 00:01:21.038899333,-1.3816787073384615,-4.735713571890001,0.6136201241988462,0.8257023816916668,0.49892842456875003,-0.5161461786979583,-5.933907210916668,27.221799372916667,-28.77054190583333
1970-01-01 00:01:21.288899333,-4.602473338488461,-13.133924402030003,1.715605457244615,0.15465194387695655,1.3233259299378262,-0.09437723778260872,-2.0212168487086957,20.62661817782609,-34.123644123043476
1970-01-01 00:01:21.538899333,-1.3073154236148,-7.025676031472,1.3859139770618798,-0.21121737738791668,-1.5633961375629166,0.09886701296666667,-1.9582733811333337,21.33887243291667,-33.66238896083333
1970-01-01 00:01:21.788899333,-2.479340339343077,-12.307418131104232,1.4416060108753845,-1.0446589139260871,-0.26004556212173924,0.10941289124343476,-8.152785694782608,28.902444922173903,-26.41238245695652
1970-01-01 00:01:22.038899333,-1.2518886841319998,-7.55241267712266,0.44413242182968005,1.086680119521739,0.6348279339434783,-0.4055838824569565,-8.596964753173914,27.539044338695653,-27.740420797391305
1970-01-01 00:01:22.288899333,-3.0843533614888465,-7.992565912068846,1.98486667914,0.654509234053913,1.028921773904348,0.7155224311652175,-2.32055155097826,17.969805843043478,-35.58743136782609
1970-01-01 00:01:22.538899333,-4.670622007305,-12.281412594538459,3.653101413460769,0.02415413163879168,-0.2992559793466667,-0.5357692148366667,5.008724331791667,17.446175337083332,-35.744365055416665
1970-01-01 00:01:22.788899333,-0.191715325964,-4.972844915735999,0.46402904661600003,-1.6357808216999996,-1.7769440152913047,0.6924665920391303,-2.9028107446260867,25.084583780000003,-30.71727827347826
1970-01-01 00:01:23.038899333,-5.18909191968423,-14.340294588584616,0.9569542342392309,0.8872763217086955,1.1409060343547826,-0.6830315904608695,-6.481541550739131,28.69308297608696,-27.068928842608695
1970-01-01 00:01:23.288899333,-1.8385247679696,-2.2458696898808004,1.6934584352159998,0.9113620953791667,0.38727557098875004,0.9042600070041665,0.9883499443416666,18.902299881666668,-35.170038382916665
1970-01-01 00:01:23.538899333,-10.074914492371924,-16.344488383900003,4.159699859815385,-0.46616218869173914,-0.6636234968578261,-0.5452266127782608,3.313765878256521,16.673780939130435,-36.19008769043479
1970-01-01 00:01:23.788899333,0.05418731689384604,-0.7801660976976923,0.8414521143319231,-1.2981295362333334,-0.9913716465108333,0.8333740821066665,-8.558410425708333,25.474848192083332,-29.43845192625
1970-01-01 00:01:24.038899333,-5.562054237145294,-18.583432024588237,3.1060937859168236,0.027747158827692332,0.6186930221984616,-0.3014311578253846,-7.72585054225,31.55568869833333,-23.5938897125
1970-01-01 00:01:24.288899333,0.1300914733932,4.43372601928,8.73905504156,-0.13847853405826085,-0.2797408687082608,0.08892711768182608,-23.278286615555558,-18.81548839111111,-37.368966845555555
1970-01-01 00:01:24.538899333,1.0964641218615385,3.9239170954615386,8.949393487038462,-0.1999036656525217,-0.1336273032717391,0.07717495411260868,-25.600860761739135,-16.812357651739127,-36.79322367173913
1970-01-01 00:01:24.788899333,0.26019492181476,3.9816421324799993,9.76741655268,-0.005236738375833346,0.19700699771041666,0.09333955636208331,-24.3967931275,-15.382417242083335,-38.16494226541666
1970-01-01 00:01:25.038899333,0.9304247870884617,3.9480457657307686,8.861393790846154,0.17978353608869568,-0.2274035664000001,-0.042085232441260875,-26.23056552695652,-16.34926903782609,-36.556093133043476
1970-01-01 00:01:25.288899333,1.3595627747199999,4.09512414552,9.0171227966,0.15728306218916668,-0.12697476427166668,-0.006729480304816667,-27.412921827083334,-17.029014031666666,-35.36576318583334
1970-01-01 00:01:25.538899333,1.4185021327307692,4.394302385807692,8.817984061653847,0.01600253314930435,-0.04342675257830435,-0.024664034026565213,-28.099553564347822,-17.622184255652176,-34.53136858608696
1970-01-01 00:01:25.788899333,1.562876903923077,4.379828637923077,8.935886958153846,-0.06428478204847828,-0.008192005204176522,-0.04410431502369565,-28.231645501304353,-17.425212279130434,-34.52400937347825
1970-01-01 00:01:26.038899333,1.24984094244,4.1621727172,9.062783844,-0.047455550550625,-0.009149978087083331,-0.045649280748500005,-27.922185341666665,-17.352862994583333,-34.81072123791667
1970-01-01 00:01:26.288899333,1.3244227717307693,4.1910711610769225,9.064625015230769,-0.017521704418695654,0.052145266849478254,0.027830853854782612,-27.54594421347826,-17.036970884782612,-35.26358745391303
1970-01-01 00:01:26.538899333,1.3420372191999999,4.10739263308,9.1432085998,-0.029906858467491665,0.015431100344679165,0.02717214620033333,-27.423563161666664,-16.5284372175,-35.599447409166665
1970-01-01 00:01:26.788899333,1.3409345891153848,4.0267014313461535,9.34775547323077,-0.1465584500030435,0.14814908737652174,0.061107273918716086,-27.050335843043477,-15.519988971739133,-36.32426718
1970-01-01 00:01:27.038899333,0.774249938936,3.5236365600799995,9.49389933472,-0.09450446828304349,0.0990326510704348,-0.1088121917704348,-25.742492923478256,-14.663699772173912,-37.61159996304348
1970-01-01 00:01:27.288899333,0.681832122803846,3.3264172949999997,9.298386981730768,-0.027837450180208334,-0.021589890676741667,0.028743673917837498,-25.156939188333336,-14.260592858333332,-38.16194597916667
1970-01-01 00:01:27.538899333,0.9969687926999999,3.39617362056,9.4976176026,-0.015094383901304348,0.009205071569782609,0.04178285076204348,-25.485770266086963,-13.569733163913044,-38.19571984391305
1970-01-01 00:01:27.788899333,0.973494837853846,3.2910619706538458,9.502763900769231,-0.021095962027875,-0.05139221707049999,0.012713759477824998,-25.891156117500003,-12.945371747083334,-38.13852612125
1970-01-01 00:01:28.038899333,1.023978625464,3.28136835928,9.497366125440001,-0.030916156587565215,-0.008735940587300437,-0.013596253280452176,-26.187975509565213,-12.846954719130437,-37.97021169304348
1970-01-01 00:01:28.288899333,0.9928967989076924,3.177782152576923,9.52142893276923,-0.054858856708826086,-0.028394783664782604,-0.010657708014094786,-26.403736528695656,-12.565275233043476,-37.91485761521739
1970-01-01 00:01:28.538899333,1.0682804992,3.0736722656399995,9.57835969844,-0.013985781559208335,-0.03908951171083333,-0.002919574597883333,-26.55010771791667,-12.200947562916667,-37.93165111541666
1970-01-01 00:01:28.788899333,1.1215945551923077,3.024990269653846,9.607171783346153,-0.0103813604096,-0.031412141336460864,0.001814968443913043,-26.895786866521743,-12.03720092652174,-37.739961209565216
1970-01-01 00:01:29.038899333,1.0997929687599999,3.0405251953600003,9.596531909160001,-0.008771117012804168,0.04776830070329167,0.001247822869541667,-26.656961123333332,-12.008266052083334,-37.91786289208333
1970-01-01 00:01:29.288899333,1.0433879558999999,2.990982143769231,9.588051927961539,-0.014936693240191302,0.05129517396078261,0.0017987125763173914,-26.189982372608696,-11.863928503913044,-38.28706475913044
1970-01-01 00:01:29.538899333,0.9371319932192308,2.9746603159615383,9.630845630423076,-0.027218888668708335,0.047422728355375,-0.031469045965890834,-25.71521123291667,-11.81111248375,-38.623766104999994
1970-01-01 00:01:29.788899333,0.8461783630240001,2.9212412476000003,9.697452044640002,-0.04913911636339131,-0.03359072106808696,-0.031132405847086958,-25.659666143043484,-11.66984997695652,-38.703740161304346
1970-01-01 00:01:30.038899333,0.8516482191807692,2.827096023538462,9.745622335576924,-0.0030454063620826083,0.02572033406569565,-0.016434280536347826,-25.624418258260864,-11.53310054304348,-38.76780087130435
1970-01-01 00:01:30.288899333,0.7793992309559999,2.7934430054400003,9.65315017092,-0.0036102770150833337,0.012954498607208334,-0.006679056193791666,-25.293280678749998,-11.586072484583333,-38.9692274725
1970-01-01 00:01:30.538899333,0.7352249380346154,2.819335239076923,9.716651810846153,0.03052845857845652,0.040237261245869564,0.0034159725964782615,-25.093801748260876,-11.607324808260872,-39.0915578752174
1970-01-01 00:01:30.788899333,0.634165246584,3.0169941284000004,9.691422583040001,0.20471158282416665,0.02239731578833334,-0.02443741084679167,-24.604027668749996,-12.771350105000002,-39.033224742083334
1970-01-01 00:01:31.038899333,0.3468287658696154,3.3141025191538462,9.562956038269231,0.05754687492943044,0.19839913301173911,0.07304307365173913,-23.617994639565218,-13.62072874173913,-39.35345873608696
1970-01-01 00:01:31.288899333,0.4006209045456,3.36022437744,9.51605326532,-0.05472027798504348,-0.15725631736739132,-0.056062990108304345,-23.79545609826087,-13.864009815652173,-39.16562685695652
1970-01-01 00:01:31.538899333,0.4816637596769231,3.2386478893076927,9.650996035076924,-0.169572011575,-0.11820497767625,-0.19222192560000004,-24.40286024291667,-13.466438770416667,-38.93234936416667
1970-01-01 00:01:31.788899333,0.5825942582307693,3.0599656150384615,9.79789824276923,-0.08237482842086956,-0.17224390156521743,-0.436673177326087,-24.628147290869567,-14.208662156956521,-38.51820423347825
1970-01-01 00:01:32.038899333,0.7885003051720001,2.66773441776,9.760926049839998,-0.06042700541241667,-0.19633594714166666,-0.5621690501708333,-24.310636202083334,-16.933969736250003,-37.6048081725
1970-01-01 00:01:32.288899333,0.8339446493230768,2.3695379051153846,9.835481625615385,0.04375774231273912,-0.1512120889247826,-0.45158447518695655,-23.90507847347826,-18.978954977391304,-36.882642330869565
1970-01-01 00:01:32.538899333,1.0146799621440001,2.76701396488,9.47426616212,0.006890646030347829,-0.049829938718521746,-0.3831020036434783,-22.921435232608697,-21.72684486956522,-35.98156721695652
1970-01-01 00:01:32.788899333,0.7444192798346153,3.2716657667692313,9.611564571692307,0.05041070226041666,-0.038569170322666664,-0.15967574561041667,-21.67692264,-23.408679961666667,-35.70079533208333
1970-01-01 00:01:33.038899333,0.595042602528,3.17043105464,9.78725928964,0.028731651868782605,-0.02415296732947826,-0.04973907633426087,-21.06778642391304,-24.713241659565217,-35.1843863773913
1970-01-01 00:01:33.288899333,0.8121361541769232,3.2408471620769226,9.425576336230769,-0.02312573775533333,0.028781656798416665,0.062327201629999995,-21.471732617083337,-24.66540010625,-34.97314516708333
1970-01-01 00:01:33.538899333,0.8802963374461539,3.079897243846154,9.60970497723077,-0.03423715830795652,0.034269840772,-0.010852227474347826,-21.65160892217391,-23.90825006173913,-35.386001586956525
1970-01-01 00:01:33.788899333,0.42236169434399995,2.9377668823199996,9.67110084236,-0.012530129333947827,0.02506695581097391,-0.005418897649695651,-21.07596621304348,-23.86634627608696,-35.759571241739124
1970-01-01 00:01:34.038899333,0.5597264275153846,3.0138960325,9.804904826230771,0.036896664689025,0.022449492568124996,0.05587140048525,-20.908902565416668,-23.574593385416666,-36.05042727791667
1970-01-01 00:01:34.288899333,0.49679291382,3.1179322266,9.61087208864,0.08739708149108695,-0.0004836684109999989,-0.007826992068695651,-20.758845453913043,-24.1922769126087,-35.725601363043474
1970-01-01 00:01:34.538899333,0.5104442948538461,3.250018474923077,9.548873784,0.040328699010625,-0.024026115917049996,-0.014589504472008333,-20.948493480833335,-24.72011399291667,-35.251198609166664
1970-01-01 00:01:34.788899333,0.527592864996,3.28502076408,9.56825271616,0.01477941812943513,-0.014910881111430439,0.0011451285150000017,-20.80734319347826,-24.90800675173913,-35.20280323826087
1970-01-01 00:01:35.038899333,0.5485112879884615,3.3817906071538464,9.512079145,0.030604641423541665,0.015969578991625,-0.051127885245041665,-20.761474530833333,-25.205498377500003,-35.01675367375
1970-01-01 00:01:35.288899333,0.47997688294230767,3.427002358076923,9.56477533196154,0.005043824476695652,-0.0016573204901739124,-0.009581578438647827,-20.42947686304348,-25.513473924347835,-34.989892545217394
1970-01-01 00:01:35.538899333,0.5178750732440001,3.45355230108,9.4782598572,0.0293353194187087,-0.0011864679274043478,-0.013277248215899998,-20.370246721739132,-25.70001527521739,-34.88756727130435
1970-01-01 00:01:35.788899333,0.4439940173807692,3.418562217038461,9.494271944538461,0.013535399639416667,0.004654858409508333,-0.005218965874166666,-20.30577055625,-25.858139672916668,-34.80832322541667
1970-01-01 00:01:36.038899333,0.43162443238399995,3.5218462829200003,9.56206159064,0.05792775345182608,0.01903647850395652,0.07741675574434782,-20.381420882173913,-25.813825108260872,-34.79695378173913
1970-01-01 00:01:36.288899333,0.5850871511653846,3.679504200923077,9.407510059153847,0.05281958930833334,-0.021046026854612498,0.06480830395583333,-20.8908138275,-26.040459315000003,-34.322025458333336
1970-01-01 00:01:36.538899333,0.632752185064,3.7044545470400005,9.342450274519999,-0.0040888720262173914,0.004293449466130435,0.05847444393521739,-21.326901809130437,-25.929211575217398,-34.13812371913043
1970-01-01 00:01:36.788899333,0.7128292025076923,3.6832291470769225,9.333500501192308,-0.01272061425621739,0.022839115952304354,-0.00938243306556087,-21.62201723869565,-25.6540510773913,-34.16061185782609
1970-01-01 00:01:37.038899333,0.5709127807538461,3.6419496037307693,9.468905463576924,-0.022936626142916666,0.021855349943966665,-0.02006970849044167,-21.300510645,-25.55229504875,-34.43744182458334
1970-01-01 00:01:37.288899333,0.606927886968,3.6594700927599995,9.43855043332,0.01259028847823913,0.011767745494086958,-0.023693438750956527,-21.114050574347825,-25.6053295973913,-34.51307529
1970-01-01 00:01:37.538899333,0.5063566413307693,3.6248908468846155,9.437424774115387,-0.026225676808874998,0.0014090947940000001,-0.09412374564499999,-20.688428243333334,-25.935632387916666,-34.52360407416666
1970-01-01 00:01:37.788899333,0.42533750611199994,3.6099710266,9.48316365972,0.007418091429478262,-0.03251053522653043,-0.05626088963869565,-20.468760034782605,-26.15658005347826,-34.48831591391304
1970-01-01 00:01:38.038899333,0.41338843125769237,3.533764959461539,9.508365713307693,0.007546734939130434,-0.010002510235065218,-0.023027540264382605,-20.197185018695652,-26.36159390913044,-34.49242102695652
1970-01-01 00:01:38.288899333,0.48071381201923075,3.666452495884615,9.485515154346153,0.09034538985441669,-0.024666968940899998,0.04524847189958333,-20.497594436666667,-26.62140448958333,-34.112614790833334
1970-01-01 00:01:38.538899333,0.623124206532,3.8241396606799998,9.36524487304,0.058631353281173915,-0.051644113785565215,0.04314146077608696,-21.08089281130435,-27.052440810000007,-33.41068516652174
1970-01-01 00:01:38.788899333,0.7129328331653847,3.8977330838461537,9.289889268115386,0.007908331436320833,-0.03866552111375,0.03999055448666667,-21.701430956250004,-27.0066887525,-33.049376806666665
1970-01-01 00:01:39.038899333,0.8204259155279999,3.90795935664,9.20078486936,-0.02007460863472608,-0.039515863703999995,-0.005326778952043478,-22.11633590956522,-26.843653554782605,-32.906957211304345
1970-01-01 00:01:39.288899333,0.7721001786423078,3.8559181155769227,9.350098677461538,-0.029470302177434786,0.021718184195965218,-0.012101056296913042,-21.951443382608694,-26.67857319347826,-33.150632941739126
1970-01-01 00:01:39.538899333,0.8034311793423077,3.8252722285384615,9.34198670023077,0.010326974719958333,0.013369723320083333,-0.030871659147708338,-21.774248441250005,-26.707002479583334,-33.244565805
1970-01-01 00:01:39.788899333,0.6626360412640001,3.8277741028,9.302914489680001,-0.003947538354217393,0.013611381539826087,-0.09609650464217391,-21.157855406956518,-27.12758006173913,-33.3011824573913
1970-01-01 00:01:40.038899333,0.5880463820307692,3.818208072384615,9.34928690396154,-0.005032341273,0.005035061643995834,-0.04364498433070833,-20.626262424583334,-27.406413158333336,-33.40685558416667
1970-01-01 00:01:40.288899333,0.5796366394040001,3.8440482604399993,9.3207693602,-0.01961518882697261,0.01632285148963913,-0.0453159498833913,-20.247191802173912,-27.532411160434776,-33.53505457956522
1970-01-01 00:01:40.538899333,0.4471374805153846,3.7305998699230765,9.390128895653847,-0.014911079678347827,-0.01290707403591304,0.01399863565995652,-20.07712936391305,-27.572584153478264,-33.60428602869564
1970-01-01 00:01:40.788899333,0.5834578470076923,3.84562413726923,9.435870314346156,-0.007830462107625,0.005544419496666668,0.04874266622,-20.3067427475,-27.274968623333336,-33.70892127458333
1970-01-01 00:01:41.038899333,0.590983044428,3.7952856628799996,9.348892877119999,0.01560587594843478,-0.005794134796252175,0.049248294013478265,-20.679032200869564,-27.23968281956522,-33.510465041739124
1970-01-01 00:01:41.288899333,0.7131055509192307,3.7998309033461535,9.338929595884615,0.012011716734291666,-0.032799560787325,0.0314914183255375,-21.15955583208333,-27.05994312,-33.35540183333333
1970-01-01 00:01:41.538899333,0.7148055541959999,3.7904357483199997,9.34197725828,-0.01591781918075217,-0.018265640668956525,-0.005047759989873913,-21.49663071,-26.929074990869566,-33.24619094260869
1970-01-01 00:01:41.788899333,0.7852439997807692,3.763537145807693,9.381579366807692,0.009812819505834784,-0.01736834501588696,-0.02549408827656522,-21.512209851739136,-26.92410833869565,-33.24018096826086
1970-01-01 00:01:42.038899333,0.73487374525,3.7800029050769224,9.271160906307692,-0.0002857074919166656,0.006017976149625,-0.07947082755083333,-21.2416528875,-27.304915825833334,-33.10240777333333
1970-01-01 00:01:42.288899333,0.6011319397,3.7929265686000004,9.4347124146,-0.028510060343956513,0.05031535444339131,-0.03637959720534782,-20.47218223217391,-27.45542750086957,-33.46075970173913
1970-01-01 00:01:42.538899333,0.48851489726923075,3.783842996461539,9.289278998730769,-0.01533365133225,0.02331513437066667,-0.034752491929125,-19.86322681125,-27.581935565416668,-33.723186015416665
1970-01-01 00:01:42.788899333,0.41810454712399997,3.70513712772,9.410085626159999,-0.02073686687346087,0.02495011448534783,0.026903091007686963,-19.586791244782614,-27.451973874782613,-33.99009472347826
1970-01-01 00:01:43.038899333,0.5338590651384616,3.7517290085769233,9.501583662769232,-0.007829564987826085,-0.014458243544152174,0.043442311573913046,-19.884561207391307,-27.059563347391304,-34.131243498260865
1970-01-01 00:01:43.288899333,0.4973465318,3.703615599384615,9.346840069153846,0.025613541860499998,-0.014337423959741668,0.043345809914499996,-20.22803950333333,-27.10213263958333,-33.89515527125
1970-01-01 00:01:43.538899333,0.60078466186,3.90118743892,9.332175640800001,0.15199075255247826,0.17877788701934783,0.20611767989260868,-20.704638936521736,-27.240499082173915,-33.49365250913043
1970-01-01 00:01:43.788899333,0.3468172513576923,4.057640938461539,9.269370398961538,0.024945416954841666,0.047992529162070835,0.0298916815007,-20.589490650416668,-27.271837551666664,-33.53957303291667
1970-01-01 00:01:44.038899333,0.34969680175639994,4.118834838840001,9.232494927920001,0.11688665753743477,-0.04534357493826087,-0.12376792551260869,-20.040637057391308,-27.242340253478257,-34.00176570652173
1970-01-01 00:01:44.288899333,0.30576224107307687,4.128507033115384,9.215194596423077,-0.11685146019166666,-0.06604817183666667,-0.1362127289175,-21.907026529166668,-25.646397987083333,-35.39727433583334
1970-01-01 00:01:44.538899333,0.36839545616538455,3.9251203625384607,9.303994551423077,-0.035737007910704346,-0.04579810607795653,-0.08869161521304346,-21.86399070043478,-25.196501855652173,-35.74539184608696
1970-01-01 00:01:44.788899333,0.242405914308,3.93581343388,9.30493828124,-0.04686911346843479,-0.050004495750608696,-0.02999639916569565,-21.57734929,-25.484768992608693,-35.71488256043479
1970-01-01 00:01:45.038899333,0.5622941648026925,3.8685265116153853,9.341664293769231,0.175984703715,-0.20205470888541666,0.18775854414166668,-23.747004190416664,-25.087446372083335,-34.5813139275
1970-01-01 00:01:45.288899333,1.5632531981079998,4.476423229879999,9.168368279800001,0.24374554322347827,-0.03366203440086957,0.14129719870782612,-25.286194677391308,-25.786752617391304,-32.94879382652174
1970-01-01 00:01:45.538899333,1.3020730944076924,4.642255994499999,8.513609319846156,0.1437199731545,0.13060934888541667,0.00015911603374999897,-25.694130897500003,-27.333895683333328,-31.355463822916665
1970-01-01 00:01:45.788899333,1.1112660334730768,4.821928517307692,8.946641517000002,-0.07856247332086956,-0.006358997051391306,0.011335421272956525,-25.19372832260869,-27.226585139999997,-31.852255116521743
1970-01-01 00:01:46.038899333,1.504694970756,4.3923400817600005,8.88316336672,-0.21549261345200002,-0.05148834783521738,-0.12453519601173912,-25.700108900434785,-25.854256588695648,-32.57963976695652
1970-01-01 00:01:46.288899333,1.6286650965769232,4.093088378846153,9.092127439076924,-0.1477194164625,-0.09039607529529166,-0.5319165947416667,-24.359345675833328,-26.47288870833333,-33.101948737916665
1970-01-01 00:01:46.538899333,1.177026361004,3.9031453674,9.18648660276,-0.03408043661504347,-0.1530403274573913,-0.738417164143478,-21.427043997391305,-29.096031272173907,-32.90162608999999
1970-01-01 00:01:46.788899333,0.7607756511615384,3.9058508183461536,9.568241201653846,-0.13015939888516667,-0.3488923671279167,-0.7642314160958333,-17.457876960416666,-32.10624806083333,-32.459153334583334
1970-01-01 00:01:47.038899333,0.04108955383200001,3.3156512216153846,9.350852878269231,-0.0781590527847826,-0.3640542522695652,-0.7807821320434781,-14.009640819130432,-34.45952705913043,-31.701673757391305
1970-01-01 00:01:47.288899333,-0.7705436462359999,3.4182078003200003,9.636486822559998,-0.07614449247091305,-0.15690159104991305,-0.4862230225695652,-14.461665693043479,-38.02204132043478,-30.146401363478255
1970-01-01 00:01:47.538899333,-0.16088658846530768,3.5034817798846145,9.565604377153845,0.04479311795116666,-0.16898279986666667,-0.24738700408708333,-13.986543655416666,-39.61836814916666,-29.477237224583334
1970-01-01 00:01:47.788899333,-0.023115392840423084,3.721647333076923,9.48312013453846,0.12480682676876523,0.07851759512969998,-0.14020481555417394,-11.726311020869565,-40.766851342173915,-28.884832050869566
1970-01-01 00:01:48.038899333,0.06434219971136801,3.9423159117599993,9.24570944832,-0.003007081842879169,-0.08967028075333751,-0.08541738971833333,-11.289469718749999,-41.48968410416666,-28.025982141249997
1970-01-01 00:01:48.288899333,0.17549275323807695,4.004259637653846,9.315566641076924,-0.00985914193452174,-0.06086095327073913,-0.0686072051607826,-11.268278785217394,-41.521798341304354,-27.987305599130433
1970-01-01 00:01:48.538899333,0.277349249264,3.87853055428,9.30099248656,-0.0601140426708261,-0.020943858220391295,-0.0029511969970695633,-11.2831656,-41.38976304434783,-28.175223143478267
1970-01-01 00:01:48.788899333,0.24703820448207692,3.7822309640384617,9.423365548923076,-0.07828127453583333,0.018049617343875,0.017687318672883333,-11.348489164999998,-40.86939477958333,-28.89811062875
1970-01-01 00:01:49.038899333,0.2785188939115385,3.6030593226538463,9.508331169692308,-0.01571782695648739,-0.06989800197173912,-0.025061805664421736,-11.521102864347824,-40.330233863913044,-29.581269223043478
1970-01-01 00:01:49.288899333,0.149143853754,3.83669555056,9.38011794432,0.19153597570833333,0.11657413376316667,-0.05642279458091667,-10.97284436375,-41.06088113791667,-28.75644373791667
1970-01-01 00:01:49.538899333,0.2474009117711154,3.7986103645,9.365050277692308,-0.1959659579102609,-0.1696346201421739,0.04973655565978259,-10.912168214347826,-41.05974197391304,-28.780464422173914
1970-01-01 00:01:49.788899333,0.426678717036,3.588691278,9.47243397216,-0.016249575333478265,-0.007051687818652175,-0.004047651670391306,-11.78545558,-40.26497782826087,-29.566123713043474
1970-01-01 00:01:50.038899333,0.32713894183500003,3.613566319423077,9.448403866153846,0.031678015642916675,0.06406484627659999,-0.01816993057370833,-11.394084334999997,-40.426959037500005,-29.496209700833333
1970-01-01 00:01:50.288899333,0.2846676459615385,3.5666561771923075,9.502752386346154,-0.04202781306395652,0.0071559295177247816,0.03774445836086957,-11.273726172608697,-40.226078530869565,-29.816506013478264
1970-01-01 00:01:50.538899333,0.1471140747056,3.5779615907199998,9.542631994599999,0.04324853373470833,0.026748960530833334,0.027817372918541666,-11.282599092083332,-40.23260434541667,-29.803785244583338
1970-01-01 00:01:50.788899333,0.47872180058076924,3.500574364269231,9.450919788153845,-0.05386511809147826,-0.0518650366007826,0.022355169267391294,-12.174036522608697,-39.920642522173914,-29.87288698869565
1970-01-01 00:01:51.038899333,0.4153631709192307,3.4241237288076927,9.539126745423077,-0.08472940011128696,0.03583314927882609,0.017952270816486957,-12.220766316086959,-39.51698137434783,-30.38612208217391
1970-01-01 00:01:51.288899333,0.34608630981999994,3.14327153324,9.64242048332,-0.05026244620058334,0.02635722757729167,-0.018206972344754168,-12.1757590375,-38.69288412708333,-31.445654073749996
1970-01-01 00:01:51.538899333,0.29482344993461534,3.225158632692308,9.660109775230769,0.034094584689391305,0.011829440370917394,-0.02723460120284348,-11.610257397391306,-38.773213760434786,-31.561450212608694
1970-01-01 00:01:51.788899333,0.31407088622800006,3.21399047252,9.619697735559999,-0.016549648693,-0.030420699755999998,-0.021802646775425,-11.670151114583332,-38.94334793041667,-31.329686006666662
1970-01-01 00:01:52.038899333,0.33146840022307694,3.2299717008076927,9.684860229576923,-0.018956295655004347,-0.00784925390822174,-0.03608428567504347,-11.55589966173913,-38.859231534782616,-31.476071480434786
1970-01-01 00:01:52.288899333,0.22860346280653848,3.1494794698461535,9.579318166923077,-0.012568067840086955,0.03229729179677826,-0.009648512902617394,-11.194409535652174,-38.85696543739131,-31.60905945869565
1970-01-01 00:01:52.538899333,0.237184771712,3.0876951049199994,9.7198993652,-0.06721374473750001,0.03478712086504166,0.0180783814797125,-11.058408936666666,-38.491122564166666,-32.09929712541666
1970-01-01 00:01:52.788899333,0.19933356065000002,2.969772403307693,9.700255138653846,-0.013338997262043479,0.00763451581416087,-0.005466717326217391,-10.983454786521738,-38.169189287826086,-32.50852336
1970-01-01 00:01:53.038899333,0.18213087228846156,2.9485511485769234,9.762318385307692,-0.014012246801416668,-0.009089434817845833,0.016464775003629167,-11.080330411666665,-38.035428365,-32.63185103708333
1970-01-01 00:01:53.288899333,0.212282556152,2.9370244262,9.703978472920001,-0.0018481716441478258,-0.004021348664182608,0.00132422893376087,-11.233498614347823,-37.995387864347826,-32.62648822913044
1970-01-01 00:01:53.538899333,0.18677697990100006,2.920927822423077,9.800799900846153,-0.01298093002178261,0.004810148290221738,0.01297272253515435,-11.32955671478261,-37.840068982608706,-32.77317760391304
1970-01-01 00:01:53.788899333,0.21237835693919999,2.8866631530799998,9.671208618200001,0.010953455983124999,0.009658688681308333,0.003557254344733333,-11.275742849166667,-37.9032727875,-32.71893278708333
1970-01-01 00:01:54.038899333,0.18045551006923077,2.888975037730769,9.806689576346153,-0.017918812596895654,0.013498559397086957,-0.0007407929563913038,-11.228960287391303,-37.808983677826085,-32.84370986347826
1970-01-01 00:01:54.288899333,0.05651324931884616,2.9262302573846153,9.7398305335,0.01884846951075,0.04099362269791667,-0.03463213925708333,-10.80687896375,-37.906197389999996,-32.872635841666664
1970-01-01 00:01:54.538899333,0.05358257446,2.9562743958,9.754537335199998,0.006673587254304348,-0.011213953827894346,0.0012003909224695653,-10.49741575,-38.07843067304348,-32.77429414826087
1970-01-01 00:01:54.788899333,0.09895575890180769,3.0009134146538465,9.742524930461538,0.0036203453529956527,-0.01642135413313044,0.016433457005630436,-10.70098640652174,-38.14777606434782,-32.62751355391304
1970-01-01 00:01:55.038899333,0.1480479020326923,2.966525309576923,9.752738307153846,0.0013439334568833318,-0.026741510888508336,0.010359294411529168,-11.116323789583333,-38.08204889291667,-32.56532049083334
1970-01-01 00:01:55.288899333,0.201672619632,2.96621372672,9.70172116692,-0.010039704325652172,-0.04095559157030435,0.01018119461678261,-11.388131597826087,-38.07713699304348,-32.47706089869565
1970-01-01 00:01:55.538899333,0.2599574925269231,2.908935452961539,9.782958156769231,-0.023666616393166667,-0.015641687439749998,0.019838142945458333,-11.708305955416668,-37.8776620225,-32.59625323666666
1970-01-01 00:01:55.788899333,0.293593469232,2.87375998532,9.764632342479999,-0.0013615852092365216,-0.013115586085217394,0.013222150686695655,-11.932618970000002,-37.697088323913036,-32.72410915130434
1970-01-01 00:01:56.038899333,0.2937065417923077,2.9122804201153842,9.749070933346154,0.020737377280826082,0.03606982370113043,0.0053634013249347825,-11.910556669130438,-37.742085331304345,-32.67982184304348
1970-01-01 00:01:56.288899333,0.19555104181576924,2.9465245936923075,9.763953446538462,0.019158664020916667,-0.005598488321133334,0.012087826669583334,-11.618185321249998,-38.004765192916665,-32.48041693541666
1970-01-01 00:01:56.538899333,0.297443463124,2.96304631348,9.7795353516,-0.00825384379546087,-0.004458075870152176,-0.0024134213224913047,-11.960038972173914,-37.80842789304347,-32.585199770434784
1970-01-01 00:01:56.788899333,0.20643801763692304,2.9590869316923074,9.72048038776923,-0.011679230291166668,0.018645057444774998,0.0030098671274958327,-11.641791819583332,-37.915535767916666,-32.57610829625
1970-01-01 00:01:57.038899333,0.2886459115846154,2.904721139769231,9.780672525192308,0.005610303708434782,-0.039946946183304355,-0.004715479016156522,-11.892351399130435,-37.77592153173913,-32.64752462695652
1970-01-01 00:01:57.288899333,0.340781341548,2.96075308224,9.78543907464,-0.016276662174826085,-0.03384447606978261,-0.019325988574860876,-11.967568480869565,-37.83635446217391,-32.550193952173906
1970-01-01 00:01:57.538899333,0.2515634096534616,2.954815045884615,9.730492260230768,0.04247016556275,0.048156106387333336,-0.019397786853758335,-11.618178685833334,-38.10205634541666,-32.36468315166666
1970-01-01 00:01:57.788899333,0.2755423912615385,2.966179874115385,9.80177287776923,-0.05301401041186957,-0.05525930981685653,0.023453021935865216,-11.60056010652174,-38.0203887273913,-32.46760160956522
1970-01-01 00:01:58.038899333,0.366719403072,2.8654372924800002,9.73742492064,0.002765707201458333,0.013801344037229166,0.01678923464254167,-12.047115444583335,-37.70364459416666,-32.674571355
1970-01-01 00:01:58.288899333,0.3162462087807692,2.8568265063461533,9.78409233676923,0.012672330272699997,0.03154229513939131,0.010310749891030434,-11.993013215652173,-37.59701388826087,-32.81695971304348
1970-01-01 00:01:58.538899333,0.26302104493199996,2.9614236877599995,9.783205718840001,0.08792649535708334,0.020711555398708333,0.02507767345179167,-11.982711911666668,-37.9237202,-32.441845417083336
1970-01-01 00:01:58.788899333,0.2896822181153846,3.497344542307692,9.482941659846155,0.4606853299130434,-0.03999020954913913,0.049495468360869564,-12.319380636086956,-39.86646403434783,-29.821234495652174
1970-01-01 00:01:59.038899333,0.4802647458570769,4.23341004,9.235742252115385,0.09463319860643474,-0.06821237889230435,0.04750665293391304,-13.18637628130435,-41.77311573782608,-26.74318927217391
1970-01-01 00:01:59.288899333,1.133197503752,4.17974018556,9.35043766464,-0.28778958800875,-0.2651026971454167,-0.4367963851791667,-13.167105356666667,-41.270691713333335,-27.50131615041667
1970-01-01 00:01:59.538899333,0.477760338426923,3.710000399,9.209874889576923,-0.09789817877826086,-0.3770231436130434,-0.8610885531956523,-7.91396188752174,-41.8522722,-28.578450326956524
1970-01-01 00:01:59.788899333,0.7843746537965385,3.1953417909999997,9.876974187499998,-0.22103076335625002,-0.42599883800416666,-0.7646617243666668,-2.5230327150291667,-41.67286650333333,-29.886516333333333
1970-01-01 00:02:00.038899333,1.0160750610759999,2.8374574769599996,9.23891956784,-0.04812347817378261,-0.3643336140565218,-0.7602812751347826,-1.164791438936087,-43.89117265608696,-28.516866186956527
1970-01-01 00:02:00.288899333,2.201316569423077,2.8650824151538457,9.810379978576922,-0.538716423773913,-0.13106906815260871,-1.0827579731217392,3.6933325477217394,-42.20900643391304,-30.664804210000003
1970-01-01 00:02:00.538899333,0.6850677020576923,2.7654242706538463,9.78896873503846,-0.10508423145974999,0.060534761939999994,-0.8736860006833332,11.470058083666666,-38.565040430416666,-33.29202381708333
1970-01-01 00:02:00.788899333,0.803133874476,2.916906262040001,10.388972022199999,0.2843468276608695,0.09601842724782608,-0.3193966681565218,15.762713349130435,-34.7803371273913,-34.39423818173913
1970-01-01 00:02:01.038899333,-0.08479866024911539,2.656819346615384,9.470661427538461,0.16030755173208333,-0.11317940638329166,-0.6934922548625,19.42955478041667,-35.37355359416667,-31.657779534583337
1970-01-01 00:02:01.288899333,-1.3734630994269232,2.7066253896923076,9.678049392653847,-0.09305728250652173,-0.22042939527739125,-0.6565879453826087,23.875931781304352,-31.160461589999993,-33.01801839086957
1970-01-01 00:02:01.538899333,-1.379656988548,2.9010991332,9.653401647919999,-0.09468402899530436,-0.06746892496355651,-0.4701679426739131,25.689151100434778,-24.912532972608698,-33.98046974478261
1970-01-01 00:02:01.788899333,-0.9959596604423075,3.5228952554615387,9.911155031038463,0.15489465724059584,-0.42201518640416663,-0.28480268945125004,22.961280265833334,-21.399635870833333,-34.806215762916665
1970-01-01 00:02:02.038899333,0.8950607116936,3.1584320068799996,9.19529428644,0.22807571842852176,-0.4366412007347826,0.1869133233013043,15.667437636521736,-22.056298295652176,-38.53533089695652
1970-01-01 00:02:02.288899333,2.516054376461538,1.825724540153846,9.585570549769232,-0.6981292851208334,-0.3045793479916667,-0.8802069575083333,14.750305136666668,-17.57927282625,-39.86804548916667
1970-01-01 00:02:02.538899333,1.0405668992615384,3.1544307121538466,9.956113463269231,-0.04611244554304347,0.06398424538608695,-0.7666460457130436,15.377652583913044,-9.466106124608695,-43.03970834478262
1970-01-01 00:02:02.788899333,0.6718448913319999,2.4358965271599997,11.0857191296,0.18087624175913042,0.1493300380878261,-0.25620235210086956,18.333318295217392,-10.28356100178261,-42.25207121347826
1970-01-01 00:02:03.038899333,0.3880795229730769,2.137658562269231,9.100694240038461,0.03395222755958334,-0.11178496433541668,0.03989039235595832,16.89251542208333,-10.783506671666666,-42.719480832916666
1970-01-01 00:02:03.288899333,-0.5629792785684615,3.859050064,10.090769982192306,0.21762869082043482,0.3165173490047826,-0.10817502708430436,18.595270985217393,-9.267626761826087,-42.48414893826087
1970-01-01 00:02:03.538899333,1.1564411681768,1.7324912658240001,10.424801513279998,0.07878811983083332,-0.3720146964041667,-0.5321847846166666,18.343158485,-9.801493287416667,-42.46927754083333
1970-01-01 00:02:03.788899333,-1.4082369408346151,2.7649521754230766,8.44155722953846,-0.4513439898926087,-0.12360362626956521,0.005921316066000027,16.375648746521737,-5.623976292869564,-43.99161429913044
1970-01-01 00:02:04.038899333,-1.9889831190884615,2.115343428431923,10.505045031923077,0.20205301840604345,0.6207163126521739,1.7256194767043476,17.79204787304348,-8.101529432608697,-42.930511143043475
1970-01-01 00:02:04.288899333,0.17000447388079998,-0.3228665954571999,10.58631564344,-0.22666187875587504,0.485885147741875,1.93433261925,15.769804279166669,-16.5889929925,-41.337834040833336
1970-01-01 00:02:04.538899333,-0.014842212389807687,1.4557343234230768,9.979723979692308,-0.30960138401304343,0.5707847437130434,0.4091844731950435,16.817447745217393,-18.38351374,-40.21374860000001
1970-01-01 00:02:04.788899333,-1.3970621020384617,-0.3207080840819231,11.215099235038462,-0.41743830465375,0.14523903403875002,-1.2070364797708333,22.190300464999996,-11.968079011,-39.53402805291667
1970-01-01 00:02:05.038899333,-1.60915374748,-0.93515932614,8.3743654176,0.38478353946478255,0.7894722405434783,-1.1444561571652174,23.430335667826085,-1.9829007620521737,-39.92832780956521
1970-01-01 00:02:05.288899333,-3.0110577039999997,-1.2187195058759999,10.381926058884615,-0.07600559570478257,0.4019633045782608,-0.08286103590130435,32.78182203869565,-2.7582691493913045,-30.527924993043474
1970-01-01 00:02:05.538899333,-5.179730617884616,-0.06102693996761537,7.946456028884616,1.013997823661125,0.3158531764780417,-1.4150101690708334,35.55311902416667,2.9455648511541668,-27.008902073749997
1970-01-01 00:02:05.788899333,-3.6010974792799995,-1.025451562512,10.459265845200003,0.9040934417652174,-0.39659902976347833,-1.172359303378261,31.475063075652166,8.396697148086956,-27.967795578695654
1970-01-01 00:02:06.038899333,-3.800671463076923,1.624945907653846,9.851809211576922,1.180385167375,-0.16239251925541667,0.19983218936541666,28.442003965416664,3.8315627574249995,-31.601635298333335
1970-01-01 00:02:06.288899333,-4.066938910884615,4.386887036846154,8.926422025192307,0.41759322291043477,-0.3357897925647826,-0.4087910170730434,25.450429500869564,-3.985474213260869,-34.18356389521739
1970-01-01 00:02:06.538899333,-4.925597167988,6.34662811896,8.104003637720002,0.02637212395391306,0.48675918928391304,-0.038456860118260876,27.232162392608696,-1.085866057340087,-32.92745142260869
1970-01-01 00:02:06.788899333,-3.412741628653846,4.463752194846154,7.244790150615386,0.4012375464791667,0.4904713877183333,0.56021096319625,30.34966325791667,-7.539376457708333,-29.096209446666666
1970-01-01 00:02:07.038899333,-4.066512873730769,6.614744567884616,7.253955706153846,-0.23903402653913042,-0.6023223747269565,0.8546403001708696,28.93107198652174,-14.01119588869565,-28.530152279565222
1970-01-01 00:02:07.288899333,-0.5404301696289601,4.92199266364,8.587677831999999,-0.41201106539710003,-0.7367710131249999,0.2486343185404167,15.307543159583332,-21.764311154583336,-36.524392285
1970-01-01 00:02:07.538899333,-0.389323090772,5.349794276346154,8.254826308076924,-0.0016124672482173853,0.08829678780921738,0.10896984751230435,12.84517147347826,-20.292010763478256,-38.38371276869566
1970-01-01 00:02:07.788899333,-0.3296318347519231,4.857128395653847,8.791869137153846,-0.21135817719686953,0.052494250876086966,0.009531126834739136,13.303447682173916,-17.961328754782613,-39.36802341695652
1970-01-01 00:02:08.038899333,-0.03000959472076,4.841987036160001,8.93608132312,0.23781918361666668,0.082211485499025,0.06059357300670834,13.179887413333333,-17.986157099583334,-39.40218003625
1970-01-01 00:02:08.288899333,-0.42360756507692304,5.387970657423077,8.486009022615384,0.27803821601739126,-0.009964796249608698,-0.1968712379130435,13.630935460869562,-19.85944830826087,-38.33556747391305
1970-01-01 00:02:08.538899333,-0.7382129551807691,5.87388327376923,8.256668630846153,0.17656323523041664,0.05504349426233334,-0.026351803038208332,14.466389615416666,-21.12966744125,-37.33905871666667
1970-01-01 00:02:08.788899333,-0.630273339844,5.896346484400001,8.03875731808,-0.11051728073826088,-0.01272792869857826,0.03031621782213044,14.415147532608694,-21.51915276565218,-37.1378624952174
1970-01-01 00:02:09.038899333,-0.5335596876923077,5.650075607346153,8.292524836653845,-0.20499317249782606,-0.13289430299913044,0.022692704088086955,13.540275035652174,-20.031352167391308,-38.276023863478265
1970-01-01 00:02:09.288899333,-0.20645528939338462,4.640856980538461,9.126020419769231,-0.4835305550766666,-0.10725226703166668,0.011568179062833334,12.153269767083335,-16.063540974583333,-40.50939512125
1970-01-01 00:02:09.538899333,-0.232538433844,4.300269543480001,9.266725744639999,0.03877095464108696,0.026051371645678258,-0.02441817570569565,12.043326336956518,-13.860605653478261,-41.38947163521739
1970-01-01 00:02:09.788899333,-0.2285746765230769,4.3597645921153845,9.177795445423076,0.026049655942016667,0.0037362684163083338,0.005231809559978334,12.195026796666667,-13.99154210125,-41.301036358333334
1970-01-01 00:02:10.038899333,-0.1720211263896154,4.454828444269231,9.096065403807692,0.03888588262853914,-0.029444120248273916,-0.003522869124426086,11.995185852608694,-14.26022587652174,-41.26736367391304
1970-01-01 00:02:10.288899333,-0.15071259155480002,4.48735050648,9.131119738759999,0.013486511513047828,-0.011682777624739129,-0.011425450806226088,11.807471316086957,-14.424245004347826,-41.26481528869565
1970-01-01 00:02:10.538899333,-0.14748944795576924,4.570036943807692,9.04496973476923,0.047811205012541665,-0.016202062203875,-0.05041518202083334,11.730095704583334,-14.692546566666666,-41.191825072499995
1970-01-01 00:02:10.788899333,-0.237490136724,4.73488176276,9.00359093628,0.11001844270891306,0.054311923121173895,0.020772611119695653,12.02669604043478,-15.379703024782607,-40.85135567739131
1970-01-01 00:02:11.038899333,-0.22501669075769232,4.788519146230769,8.895672507538462,0.05744028557544167,0.10300323442416666,0.021543088588375,12.446150302916665,-16.050162195833334,-40.46791458083334
1970-01-01 00:02:11.288899333,-0.5867682706384616,4.953320670500001,8.835693388730771,-0.009404634568695652,0.10080574618695652,-0.05125394991582608,13.725538876956522,-16.472829320869568,-39.878455286086954
1970-01-01 00:02:11.538899333,-0.6667255371080002,4.9247888489600005,8.919004833839999,0.04675385615230435,0.0063220257261304355,0.003981461798565217,14.285033100869567,-16.344338541739127,-39.737144137826085
1970-01-01 00:02:11.788899333,-0.6509501882692308,4.952376480192308,8.833770464384616,0.012032105070804168,0.006049416453999999,-0.023150856519674995,14.232761224583333,-16.548099279166667,-39.67162466125
1970-01-01 00:02:12.038899333,-0.6588836904653846,4.979717700615385,8.76445307226923,-0.05072973312373912,-0.03128806818513043,-0.011366771089304346,14.07405052956522,-16.41223152782609,-39.78382160260869
1970-01-01 00:02:12.288899333,-0.5824747375479999,4.82509017332,8.95937887568,-0.04242467494429167,-0.0688332806908075,-0.028270337282950003,13.511967222083333,-15.55936924625,-40.31729666458333
1970-01-01 00:02:12.538899333,-0.54346792955,4.755616414038461,8.970948662307693,-0.008884257498936522,-0.0016944359460391303,-0.014863548351573915,13.367420858695652,-15.31899265695652,-40.45858267
1970-01-01 00:02:12.788899333,-0.5322124892038462,4.803476503807692,8.923952161346154,-0.0008450639738130433,-0.014719445266765219,0.008996898280539133,13.322851927826088,-15.332011970000002,-40.46834265478261
1970-01-01 00:02:13.038899333,-0.492631567392,4.75721531984,8.991076959199999,-0.007118812206904167,-0.015291925868833331,0.0029385952243833335,13.147129295416667,-15.251093785416666,-40.55630413666666
1970-01-01 00:02:13.288899333,-0.44875527014230776,4.760930363615385,8.960833159307693,0.006157327165291302,-0.008217880540686956,0.013480094848999997,13.039788578260868,-15.300883707826085,-40.572177553478255
1970-01-01 00:02:13.538899333,-0.4430728560192308,4.766900640692308,8.976579261269231,-0.0035293654852166668,0.0017061231577291667,-0.006733038313529167,12.9465212425,-15.301229754166668,-40.60197162666667
1970-01-01 00:02:13.788899333,-0.43913880615599993,4.76702292472,8.967539904799999,-0.002907767714791304,0.021081832177000003,0.002693975506669565,13.074583883913046,-15.291612003478258,-40.56452792695652
1970-01-01 00:02:14.038899333,-0.5195465205192308,4.774966559730769,8.968375167884615,-0.008350052599900001,0.022388829819217394,-0.001473303581347825,13.258716500869568,-15.20745804,-40.53634942043479
1970-01-01 00:02:14.288899333,-0.5168348517807693,4.723928463346154,9.0096374395,-4.399761475833312e-05,0.023165899697749997,-0.0071908006025416665,13.474793394583331,-15.170257409583334,-40.47903998625
1970-01-01 00:02:14.538899333,-0.5727329956,4.770986682119999,8.96736027836,0.010655096481191307,0.0015888336302608693,-0.010467118407995652,13.590822676086956,-15.219997738695653,-40.421543121304346
1970-01-01 00:02:14.788899333,-0.5928076347807691,4.799049171923077,8.964252970807692,0.003033512320291667,-0.0026270634671166668,9.18441127383332e-05,13.62195785625,-15.283486921249997,-40.38709847125
1970-01-01 00:02:15.038899333,-0.5321376448461539,4.7938503675769235,8.892914780807693,0.005152781396652174,-0.006980678125821738,-0.0027243347490434784,13.517606818695652,-15.372784779565215,-40.38821460913044
1970-01-01 00:02:15.288899333,-0.5938870056200001,4.75292224728,9.02419409192,-0.03405780543643478,0.007357163617956524,-0.02634921469521739,13.574967260869565,-15.190708160869564,-40.43735238826086
1970-01-01 00:02:15.538899333,-0.5854498584500001,4.727889457076923,9.006396102884615,-0.0006705267479686248,-0.0077009202267083335,0.00037442750662500013,13.61545376,-14.938935995416665,-40.51800076166666
1970-01-01 00:02:15.788899333,-0.5721390768269231,4.7280333885769235,8.966481029807692,-0.002279775548152174,-0.003607447566134782,-0.004442437652695652,13.522954692173913,-14.988222454347829,-40.53077681173913
1970-01-01 00:02:16.038899333,-0.5876664029538461,4.716219494076923,9.012780902576923,0.0022255841836083335,0.010939333464387501,0.0024012873018249997,13.547975738750003,-14.938806772083334,-40.54063177125
1970-01-01 00:02:16.288899333,-0.612161004636,4.7433780944,8.974467498840001,0.006230027748913043,0.02117316083786957,0.004929569605565217,13.689210766956522,-15.05103144521739,-40.4515510226087
1970-01-01 00:02:16.538899333,-0.6021056072500001,4.739876069307693,8.98014300426923,0.012896522054304348,0.00045100359600000033,-0.015320384920356523,13.766671927391304,-15.088923661739132,-40.41118737869565
1970-01-01 00:02:16.788899333,-0.6355149782576923,4.793533718461538,8.927631049576924,0.009785805256624999,0.0073552951683916665,-0.011469880938808333,13.851432800416667,-15.234112700833334,-40.327600796666665
1970-01-01 00:02:17.038899333,-0.676006237796,4.80661259756,8.94539196168,0.005840233163940435,0.007657441437126085,-0.03480459039547825,13.95436237086956,-15.202637797826085,-40.30400665956523
1970-01-01 00:02:17.288899333,-0.71071628865,4.807662030730769,8.969135125923078,0.013913862752416668,0.0023523879977083335,-0.014747576133008334,14.087287743750002,-15.223010619999998,-40.250058969166666
1970-01-01 00:02:17.538899333,-0.6883666111769231,4.882437303923077,8.867830405615384,0.008536661088726085,-0.014174836464539129,0.004095087108204347,14.00510535043478,-15.43467505130435,-40.19804896521739
1970-01-01 00:02:17.788899333,-0.66605493164,4.838256793119999,8.920705297840001,-0.012584395646173913,0.00032039584168695615,-0.015647565272652174,13.909710966956524,-15.383952845652175,-40.25062328869565
1970-01-01 00:02:18.038899333,-0.7063004713846154,4.830351386269231,8.946342139653847,-0.0005084981647916667,0.0025463704192125007,-0.011299903363512503,13.998150070416665,-15.229722777916669,-40.278620242500004
1970-01-01 00:02:18.288899333,-0.7011707540576922,4.818059639461539,8.970413237346152,-0.0035486633825217396,-0.003398978526195653,0.0017546572390608696,13.982003751739134,-15.17308119043478,-40.3055995447826
1970-01-01 00:02:18.538899333,-0.6915439270039999,4.8004933228,8.953337439039998,-0.005498233410645834,0.012739478813750002,0.015943827030124997,13.977110705000001,-15.1746381125,-40.306707699583335
1970-01-01 00:02:18.788899333,-0.6995702362076923,4.815509174115385,8.917193139923077,-0.0029709313435217384,0.012385969803782607,-0.0015270887553478266,14.012834051739132,-15.157620387826087,-40.300699814782604
1970-01-01 00:02:19.038899333,-0.7199682030192308,4.786717124346154,8.969382688038461,0.00042689502954782604,0.03705427867094348,0.018368561438782606,14.248404253913039,-15.174142381739133,-40.21172598043477
1970-01-01 00:02:19.288899333,-0.724379644776,4.7963679016,8.932860022,-0.002351270459008334,0.003634985342432917,-0.00860902338590875,14.275399923750001,-15.182175913750001,-40.199198245
1970-01-01 00:02:19.538899333,-0.732956578180769,4.801927801384616,8.959428388153848,0.009054122375586957,-0.00047051476806956525,2.7291499595652378e-05,14.273936354347825,-15.199239813043475,-40.19325587913043
1970-01-01 00:02:19.788899333,-0.7435038757423077,4.8093258785,8.968070033230768,0.006525731680335,-0.0029241661645625,-0.004886748770083334,14.2300297425,-15.236817398333335,-40.19460423916667
1970-01-01 00:02:20.038899333,-0.7262477600120001,4.85589611208,8.91876533208,0.01525257241391304,-0.026406612935521746,-0.004605139155460869,14.06980390173913,-15.365537063478259,-40.201942277826085
1970-01-01 00:02:20.288899333,-0.7089891110961537,4.876374910769231,8.892828421961537,-0.006119289586207826,-0.01126536724683913,-0.004470336897573912,13.914263685217389,-15.442714359130436,-40.22656797391305
1970-01-01 00:02:20.538899333,-0.70194798395,4.820120738115384,8.947217242884616,-0.009593829601633333,-0.0069473911374125,-0.013196646435083335,13.904481728333332,-15.29974834125,-40.28447945916667
1970-01-01 00:02:20.788899333,-0.7182603698840001,4.821779058760001,8.96892302844,-0.007569675743643479,-0.002120969928365217,0.0015035412922086958,13.932069240434782,-15.178974026521743,-40.32068086652174
1970-01-01 00:02:21.038899333,-0.7110041515653849,4.822711504346153,8.960959818846153,-0.00029940103689166667,0.002772268339916667,0.0137659516062875,13.934835235833333,-15.158185879583334,-40.32754246333334
1970-01-01 00:02:21.288899333,-0.706599848823077,4.811726655153846,8.956037362923077,-0.00017819387564086946,-0.009623608567186956,-0.003298958413530434,13.906912346956522,-15.171675847826085,-40.33210654869565
1970-01-01 00:02:21.538899333,-0.7054769531160001,4.82015044556,8.944086676120001,-0.005687773217130434,0.02064759254937826,0.006509860836173913,13.944302267391304,-15.185545963913043,-40.31393051260869
1970-01-01 00:02:21.788899333,-0.7259039365346154,4.7821573756538465,8.999775255692308,-0.001248922387229166,0.030047613778125,0.0026859737985416667,14.209944962916666,-15.117470065000001,-40.24667167583333
1970-01-01 00:02:22.038899333,-0.7359733816346155,4.797350780692307,8.970516868,0.004245520250291303,0.007174672481100001,0.0018858608236521734,14.319846609130435,-15.12853294826087,-40.20361261826087
1970-01-01 00:02:22.288899333,-0.73450458986,4.7369953674,9.00748883056,0.029154606759416668,0.022862890916916664,-0.10047878476316667,14.427413184166667,-15.06204366625,-40.18993012125
1970-01-01 00:02:22.538899333,-1.0466983796153846,4.887296430115385,8.892379355846154,-0.02492861878716087,-0.027768883151173908,-0.1639914660431739,15.036963753043475,-14.578454763913044,-40.14413850173913
1970-01-01 00:02:22.788899333,-0.9690272052423077,4.760061017538462,8.986988384538462,-0.003913751126578261,-0.008023604046582606,0.027714049072626087,15.006047786086958,-14.30995555565217,-40.25287876826087
1970-01-01 00:02:23.038899333,-0.9458530883559999,4.765777514680001,8.94593682864,0.001823782100774167,-0.015420556791779167,0.0033334131487916655,14.763493020833335,-14.404045939583334,-40.30904595125
1970-01-01 00:02:23.288899333,-0.9127269744692309,4.736715334384615,8.978755504846154,-0.018831928361347828,-0.010267740348608697,0.018044249431752174,14.590286958695652,-14.372854522608696,-40.383111042173915
1970-01-01 00:02:23.538899333,-0.8930947230423076,4.740244533884615,8.9648056675,-0.002678428504270832,-0.0017947627083000014,0.013083159021333335,14.472402293750001,-14.306866049166667,-40.44902229375
1970-01-01 00:02:23.788899333,-0.8897842994230771,4.734982399576923,8.971023506807693,-0.005204065919347826,-0.008405804101569565,0.013550100020891303,14.40839398391304,-14.337470385652171,-40.461040993913045
1970-01-01 00:02:24.038899333,-0.8247668884320001,4.70021984244,8.97510217888,-0.002306481655652175,0.0012345281441956512,0.01334462689852174,14.303597947826082,-14.375357669565219,-40.484768079999995
1970-01-01 00:02:24.288899333,-0.844422859776923,4.719662334730769,8.958392081653844,0.00577377272711375,0.00831234213155,0.01572929863029167,14.33200887875,-14.427243273333332,-40.45624589958333
1970-01-01 00:02:24.538899333,-0.8467430349500001,4.708775358846154,8.958875691307693,-0.013061265946913043,0.007594515311956524,-0.0025588606320130435,14.371740962608696,-14.415422191739129,-40.446354410000005
1970-01-01 00:02:24.788899333,-0.861632226568,4.67958076176,9.02040397332,0.0033299542748750012,0.01586559495135417,0.013866090769166667,14.512639601666669,-14.332334479166667,-40.42558336333334
1970-01-01 00:02:25.038899333,-0.887026572596154,4.725724727923077,8.935725755038462,0.006228251131865216,0.0048903918928778255,-0.0021188566687869565,14.555714980869565,-14.438753999130434,-40.372174470434786
1970-01-01 00:02:25.288899333,-0.9062730877230769,4.742432292,8.971455301076922,0.006528110370126087,-0.00613650148338887,0.0051728931417739125,14.586272613478261,-14.50433515478261,-40.33764847478261
1970-01-01 00:02:25.538899333,-0.8342092529360001,4.73389980476,8.9626301148,0.007592973444945832,-0.013372034931291667,-0.0006946711794708328,14.4423330225,-14.624773780833332,-40.34591913125
1970-01-01 00:02:25.788899333,-0.8309163313653847,4.760320094153847,8.92048053446154,-0.0022753318520000003,-0.017157313272695655,-0.013542692313739127,14.325369461304346,-14.635238316086955,-40.38380929782609
1970-01-01 00:02:26.038899333,-0.8394255594076923,4.767562725384615,8.925616009153845,-0.000696167223875,0.0002624745434125,-0.0013861617289583326,14.284027219166667,-14.563964207500002,-40.42421595333333
1970-01-01 00:02:26.288899333,-0.866392327888,4.73529490356,9.0140571716,0.004413751606652174,-0.0026503127058826103,-0.0033476176976478273,14.398375553043481,-14.503311862608694,-40.40543630826086
1970-01-01 00:02:26.538899333,-0.8327816831192307,4.789699384230769,8.920900814346153,-0.004277734947795653,-0.016012069158552175,0.034984808093478266,14.310413526521737,-14.600206333043477,-40.40178995478261
1970-01-01 00:02:26.788899333,-0.3428159567046538,5.068857333961538,8.311673478346153,0.18219406796370832,-0.23739251044083332,0.26517041927583335,12.056376496250001,-15.245900749583333,-40.86479473166667
1970-01-01 00:02:27.038899333,0.32483051148404,4.9042515564,8.99537601908,0.2687950851804348,0.1809707079904348,0.03806891891913045,10.803102784347827,-18.656071207826084,-39.808841373478266
1970-01-01 00:02:27.288899333,-0.6896101790119231,5.334059688769231,9.2509011135,-0.3974607604141666,0.03523343693291666,-0.05774412971916667,12.983523131666667,-17.607451397083334,-39.61308717666667
1970-01-01 00:02:27.538899333,-0.40622640170461544,5.403941292384615,8.245044725769231,0.7863744963,0.06516658865,-0.2149654877004348,12.492799592608696,-19.180921720869566,-38.97602645173914
1970-01-01 00:02:27.788899333,-0.9291639474769229,6.585106201192308,7.277681368269231,0.33316895429652177,0.0515510352373913,-0.1769421666898696,14.761163297391306,-23.050117409565217,-36.05221259086956
1970-01-01 00:02:28.038899333,-1.2899455444984,7.202721862760001,7.402496429399999,0.3482629833695834,0.30148494368374995,-0.13651683584875,17.088896075416667,-25.55679790166667,-33.21004796
1970-01-01 00:02:28.288899333,-2.216049393846154,7.466738222615385,5.9402356778846155,0.5549058836478261,0.1974720119152174,-0.03309583151560871,19.667231767391307,-28.921995328695655,-28.698538489999997
1970-01-01 00:02:28.538899333,-2.1933254946538465,8.270906331076922,4.970373670115384,0.27523458385375,0.13498661543825832,0.06537453028108334,20.605235655833336,-31.89946818333333,-24.640446504166665
1970-01-01 00:02:28.788899333,-2.18944302984,8.42457101436,4.90082667832,-0.3534975029634783,-0.23062832126608693,0.07955310688173914,20.267425205217393,-32.494757611739125,-24.116272636086958
1970-01-01 00:02:29.038899333,-1.1371621821499998,7.479294803269231,6.3822607128076925,-0.5863867842652176,-0.7320321642826088,0.04658094777086956,16.13515132304348,-29.22841378869565,-30.4347737373913
1970-01-01 00:02:29.288899333,-0.42220279400769234,6.689853762115385,7.381663213923077,-0.40849529951666663,-0.13811505435954166,-0.023729122223875004,12.060654838333333,-24.600413322500003,-36.01882648416667
1970-01-01 00:02:29.538899333,-0.4105781982519999,6.1685224914,7.88724239504,-0.06487036010739128,-0.043760823721078264,-0.0537213806226087,12.070753387826088,-21.63109721391304,-37.89878778869565
1970-01-01 00:02:29.788899333,-0.44433369563846153,6.486173471346153,7.641914326730769,0.5271212743958333,-0.19689652362825003,-0.04550869013708334,11.543040435,-22.800952275,-37.348237832083335
1970-01-01 00:02:30.038899333,-0.02360475979942308,7.4210083183461535,6.732871997423077,0.3744331326260869,-0.22067370233608694,-0.011195735441695652,9.615850532130434,-27.55214641391305,-34.605243683043476
1970-01-01 00:02:30.288899333,0.18087187500799998,7.63801067504,6.32187559196,-0.10372996897173914,0.04577511913521739,-0.050810838884956515,8.541417619391304,-28.974585241739124,-33.7241949
1970-01-01 00:02:30.538899333,-0.2187297644973077,7.253857832576923,6.919608676576923,-0.38358847425,0.18172560756875,-0.010052679299166667,10.426153501208333,-26.235390504999998,-35.37035687791667
1970-01-01 00:02:30.788899333,-0.3814932192269231,6.819098457961538,7.389377940307693,-0.03735908068739131,0.09407724342652175,0.06981078697347827,11.365355741304347,-24.091522216521742,-36.61494396130434
1970-01-01 00:02:31.038899333,-0.22802980957640004,6.753643725640001,7.354134997519999,0.0053237547205,-0.015688905065875,0.06648509887375,11.25176859,-24.100217978333337,-36.64370314291667
1970-01-01 00:02:31.288899333,-0.15050049414846153,6.755423179038461,7.3531647843846155,-0.0119110126733,0.019850534285043474,0.031983897496,10.54094024347826,-24.166616440434776,-36.8117732173913
1970-01-01 00:02:31.538899333,-0.21395699721269232,6.765291120115383,7.325115420923078,-0.015194138121565216,0.06423069743413044,-0.01825528494704348,11.04330137521739,-24.01194970478261,-36.76549214913043
1970-01-01 00:02:31.788899333,-0.4353005570653847,6.885612065230769,7.303963253346154,0.24799398632595834,0.32982507564583335,0.049009359878458336,12.397391519166666,-24.344779490833332,-36.08647791666667
1970-01-01 00:02:32.038899333,-0.9088979369839998,7.242185797039999,6.949382684320001,0.14930747698932176,0.15724770765695653,0.0059766761325217395,14.85251654826087,-26.45493051304348,-33.606299856086956
1970-01-01 00:02:32.288899333,-0.7819681197153846,7.160135421769232,6.887834366923077,-0.32418562356249997,-0.27498750140916667,-0.07437864995954167,14.328936060416666,-26.34353200625,-33.88860209708333
1970-01-01 00:02:32.538899333,-0.6235513951230769,6.668540391230769,7.518375073923076,-0.07995432533478261,-0.07881872795652174,-0.07883319922739132,13.062756994347827,-23.257462956956523,-36.58524107043478
1970-01-01 00:02:32.788899333,-0.5745172851639999,6.6713089416799995,7.476819873160001,0.3008868208356522,0.09624977407678262,0.010376746645217393,13.17074991304348,-23.577256078695655,-36.337837883478265
1970-01-01 00:02:33.038899333,-1.0340439253884617,7.513015066307693,6.605043587346154,0.11858736901833332,0.056416986193333324,0.033630619562250004,14.495835105,-27.19549457291666,-33.15778684625
1970-01-01 00:02:33.288899333,-0.6349277379,7.000417556692308,7.218629167961539,-0.32829264389999996,-0.23558432284347824,-0.05527734825584784,13.091750807826086,-25.154442828260873,-35.27375544608695
1970-01-01 00:02:33.538899333,-0.41764350586,6.6737518615199996,7.500057550079999,0.0013841286230416652,-0.017837190894658333,0.029406464930416664,11.908610224583333,-23.56406831833333,-36.78510332208334
1970-01-01 00:02:33.788899333,-0.47182460492692313,6.74181877723077,7.41879753123077,0.007039806076695653,0.07337461201391304,0.05840248403826087,11.915691832173914,-23.73445129391305,-36.67320350956523
