,acc_x,acc_y,acc_z,gyro_x,gyro_y,gyro_z,magnet_x,magnet_y,magnet_z
1970-01-01 00:00:05.040393417,4.760458268307692,8.361859500576923,7.929138195307693,0.28389125834999995,0.030545208695217384,-0.3644175931765218,5.539665263652174,-42.06661340434783,-16.5007895173913
1970-01-01 00:00:05.290393417,1.281335449188192,7.739816507192308,4.711383397,0.553985222526087,0.8102884772086957,-1.3352809107391304,15.83913264026087,-41.06057556826087,-10.45540846978261
1970-01-01 00:00:05.540393417,-1.793767840564,6.97005769032,2.97816487424,0.9202185547291667,0.9224521095041666,-1.0789097797166667,25.525880654999998,-36.90699799833333,-1.2883987425716665
1970-01-01 00:00:05.790393417,-4.533668341884615,8.701301703846154,1.6307089233580767,-0.028175198692391313,-0.02574714677391305,0.2725927849273912,29.599252950434778,-33.41356211217391,7.137538039130434
1970-01-01 00:00:06.040393417,-3.1777837646799996,9.066106933479999,1.8866167602439998,0.06206646468958333,-0.45744844474499996,0.0038900459229166636,28.934615055,-34.429471650833335,4.6281308333333335
1970-01-01 00:00:06.290393417,-2.4987653291807694,8.203529134923077,2.8463655678076925,-0.5795417712913045,-0.6444461461615651,0.5867395590721739,29.481643674782607,-34.3563940626087,3.6212899165956514
1970-01-01 00:00:06.540393417,-0.08168214110319998,7.47253278808,3.8565921753199994,-0.850060497978261,-0.6979552002043478,1.1472813616043478,19.956743986521744,-39.734298374782604,-8.441300847869568
1970-01-01 00:00:06.790393417,3.5953042954615384,7.57909687923077,7.105067244230769,-0.6120263102083333,-0.14119754762583334,0.8985805412375001,7.200969259625,-41.31836779791667,-17.335006913333334
1970-01-01 00:00:07.040393417,4.85234549548,7.992287951680001,8.3741798034,0.23502356300347826,-0.05896968377913042,-0.3037184849138696,2.5732469558695654,-40.56631005347826,-20.526757197826083
1970-01-01 00:00:07.290393417,1.5715300634399998,7.856078585076923,5.497393112192307,0.6722459880083332,0.6723395735125001,-1.3831138660416666,13.067768693208334,-40.69724496166666,-14.67531347375
1970-01-01 00:00:07.540393417,-1.8084412501846154,6.7299703393461545,3.264705241230769,0.9296984102347825,0.701476145047826,-1.2682011566956521,27.669273459999996,-35.62011353782609,-2.8613423058043472
1970-01-01 00:00:07.790393417,-4.225658697480001,9.173451708440002,1.882952380412,0.4387589419704166,-0.03180851368166666,-0.08657999780166666,34.8195657725,-28.62754575625,6.390170693375
1970-01-01 00:00:08.040393417,-4.180218728884615,8.382850465038462,1.5549779452,-0.22191352146260873,0.03957956407513042,0.05627998088108695,34.582032079130435,-28.813675009565213,6.948366745565217
1970-01-01 00:00:08.290393417,-3.2091645080399998,6.975560247760002,2.599685925324,-0.9646997270173914,-0.3859518060978261,0.8784774049565216,30.73658279695652,-33.30048917695652,1.228809812886957
1970-01-01 00:00:08.540393417,-0.3060385894769231,7.985599629307691,4.834145419773076,-1.0850861396,-0.6378089052916667,0.941479334,22.91570115,-37.81104898416667,-8.653032581166668
1970-01-01 00:00:08.790393417,2.67791923828,7.57570424196,8.86097351072,-0.45068098493004366,-0.4495541401478261,0.3809722247413045,15.27480316173913,-38.49733203391305,-17.062204153913044
1970-01-01 00:00:09.040393417,2.5283403661153847,8.10120537976923,8.403639925423077,0.6114986451916666,0.23024519385374997,-0.6416333249214999,14.901611089583332,-38.889397145,-16.44301323166667
1970-01-01 00:00:09.290393417,-1.057466986084,7.741744958440002,4.102925921600001,0.7302267033043479,1.0748308145304348,-1.547146672869565,27.040369696956517,-34.77767131695652,-5.735560625147827
1970-01-01 00:00:09.540393417,-4.227215229884615,6.202622733423076,2.595118807192308,0.8698760945043478,1.0332953540704348,-0.6348717799078262,34.66283781565217,-27.627433859565222,5.844395347086958
1970-01-01 00:00:09.790393417,-5.989425694384616,8.018870826230769,0.9913308246184614,-0.17623990513995835,0.11414328470375,0.04725603418458333,34.53480100708333,-26.32784819458333,10.90930688375
1970-01-01 00:00:10.040393417,-5.8946520080400004,8.046409405559999,1.264881665028,-0.14549409656813042,-0.14176880066565217,0.17708445158043476,34.92066109652174,-25.108607498695655,13.306266412173912
1970-01-01 00:00:10.290393417,-4.4065020165,6.345500617346153,2.301631041346154,-1.0441938141166667,-1.0522367358625002,1.0715598277512501,31.803486824166665,-30.563978037083334,6.016111533002959
1970-01-01 00:00:10.540393417,0.7332052917391999,8.310598022319999,5.06178396616,-1.001856796095652,-1.2381279533391305,0.991467130647826,21.261715433043477,-36.69901093130434,-13.454055536652175
1970-01-01 00:00:10.790393417,2.6940803233884614,6.380878970807692,9.452940585692307,-0.6904117300238695,-0.24429633375695647,0.3330580452786956,11.461942590434784,-35.46713522217391,-25.102726065652178
1970-01-01 00:00:11.040393417,2.8638086792400004,6.45404474492,9.1989945926,0.7914360327041666,0.20484061717541668,-0.4752105301558333,10.92776453525,-35.86552540416667,-24.763112943333336
1970-01-01 00:00:11.290393417,-0.30650492740384616,7.56538884676923,4.578615259,1.0270283715391302,1.1331806091739132,-1.326175015982609,22.156384675652173,-36.651576000869575,-12.262800963434781
1970-01-01 00:00:11.540393417,-3.8442020944230766,6.834988491346153,2.577029501153846,0.9793244972708334,0.8181446104333334,-0.5558077199375,32.63084968041667,-30.280477523749997,4.443600336666667
1970-01-01 00:00:11.790393417,-4.9420749024,9.424515619080001,1.330912353418,-0.12803128576378262,-0.4746660998260869,1.4725488994304348,30.969522643043483,-30.695687750434782,10.545104773565216
1970-01-01 00:00:12.040393417,0.1555208235846154,9.920890555846155,1.0265249457876922,-0.14096247923217392,-1.2119517143652174,0.9954851218521739,19.206453155652174,-40.06474519782609,5.952224607304347
1970-01-01 00:00:12.290393417,1.104858435132,6.10424016724,2.85218684684,-1.0586372117,-0.172135261205,0.570611375941375,15.494879523333333,-42.000496705833335,-1.6239804427020832
1970-01-01 00:00:12.540393417,4.561360755265385,7.470152276884615,4.796256901653846,-0.5376342986504826,-0.13876913107386957,0.7683319877043481,5.822519758434782,-42.47643777565217,-13.077347382608693
1970-01-01 00:00:12.790393417,6.39278014524,7.5113440796,7.66536778572,-0.15951672553333332,0.29447627494833334,0.31113648532579163,0.08863751097333335,-41.64860089625,-16.945130666249998
1970-01-01 00:00:13.040393417,4.888096689,8.147211632346155,6.696549453730769,0.4207772787478261,0.19202342953521742,-0.7247706134917391,2.791399375244217,-42.23121079086956,-14.944981948695652
1970-01-01 00:00:13.290393417,2.1155219033346153,7.122333262538461,4.301075099115385,0.7060527257304348,-0.05606947231565217,-0.7218261555391304,11.450071044652173,-42.38154485956522,-9.318601981217391
1970-01-01 00:00:13.540393417,0.25271647338964,7.9826599731600005,2.3648063598080005,0.4410109893408334,-0.200577367608875,-0.6481725152758129,16.063503424999997,-42.47256676333333,-3.0989557106666665
1970-01-01 00:00:13.790393417,0.2553344139526923,9.389127132961539,2.500463720423077,-0.01934671143173912,-0.17515393021304346,0.06045985334869565,16.325073947826084,-42.61328655739129,-1.476868214878261
1970-01-01 00:00:14.040393417,0.5511897949076,9.106666589360001,2.9234027527600004,-0.2849011807775,-0.09900868687108333,0.13625516294325,15.738044340416666,-42.635771115000004,-4.340421756125
1970-01-01 00:00:14.290393417,1.155539351283077,7.17236383876923,3.3759872905576924,-0.8221601053652173,0.11701192137304349,0.8377593142769565,14.254002115217391,-42.46230432217392,-7.477897768347826
1970-01-01 00:00:14.540393417,3.244604809508,6.713335546999999,5.49459393312,-0.7239934499724783,-0.14889272038826082,0.8931216260782611,6.035312610913043,-42.115469061304346,-14.883546870434781
1970-01-01 00:00:14.790393417,5.496869201615384,6.146472191423077,8.181473077538463,-0.3441509070606667,0.11893284058583332,0.49532073736249993,-1.0599249601283331,-40.0793112125,-20.78750515
1970-01-01 00:00:15.040393417,6.47151042472,6.241361023,8.16096318972,0.5842775139553477,-0.2023351025717391,-0.3039133435967391,-3.5389405539565217,-40.15205980391304,-20.36821390173913
1970-01-01 00:00:15.290393417,4.259674653307692,7.311240428076922,5.24854137123077,0.7692371296416667,0.0070324807937499996,-1.053995475175,3.6833620866708334,-43.2709058125,-11.878748575958333
1970-01-01 00:00:15.540393417,1.110598191446154,6.104167856076923,2.7101315600769236,1.0313074045086956,0.11370386070739133,-0.23804052126,12.475223250869563,-43.24518419304348,-2.351502708817391
1970-01-01 00:00:15.790393417,2.296440527316,10.03737716636,1.2995974731632,0.09651919859695651,-0.6213238390003477,0.4747970899177826,10.829314688782611,-43.645863242173924,4.020323877826087
1970-01-01 00:00:16.040393417,3.443675378592308,8.888827127346154,1.5821176616807693,-0.14143041738095832,-0.2686940234425,0.1606742315904167,8.352601925583334,-44.37144422416666,1.7846088807083333
1970-01-01 00:00:16.290393417,3.26820173948,8.1549936036,1.3589640197088,-0.5388072987956523,0.008741046265217399,0.43936969453217384,5.113364675652174,-44.8560653352174,-0.32763624184260864
1970-01-01 00:00:16.540393417,4.775939536538461,5.72090140123077,3.059165355923077,-0.9773915186916667,-0.17784301064025,1.3337908859333334,-4.8417640128129165,-43.26233212166667,-9.924064140458334
1970-01-01 00:00:16.790393417,8.82001867688,4.5171924499200005,4.48525486448,0.02477317870521738,-0.2853960402856522,0.4548717163695652,-12.959727825652173,-40.31747386695652,-11.67988715
1970-01-01 00:00:17.040393417,10.298088860999998,4.983408103307692,4.878044515884615,0.07028873480191666,-0.0028052843368333302,-0.06747921497291666,-16.815241217916665,-39.171387037916666,-10.701230685416666
1970-01-01 00:00:17.290393417,8.41460750269231,5.549484786846154,3.591613892769231,0.3247777145782608,-0.15926327765553475,-1.4239418843869567,-9.669387899695653,-41.722819949999995,-8.869993043695654
1970-01-01 00:00:17.540393417,3.5005246216,7.06003857416,2.07081172488,0.4663139193,0.2655338083791304,-1.5230414349565218,5.045090012223479,-43.66855754086957,-4.716143110608695
1970-01-01 00:00:17.790393417,1.0965044227115384,8.835958222730769,1.8733255533538462,0.23809785567104166,0.13147493793416667,-0.4125850363483334,9.977117578208333,-44.23298390666667,-1.2129626671858333
1970-01-01 00:00:18.040393417,1.683285589556,8.94503270904,1.9420434998000002,-0.035540231509478264,0.1384384865417391,0.12642495836826087,12.215001645304346,-43.694684568695656,1.2419484594530434
1970-01-01 00:00:18.290393417,0.7827914076715385,7.667528369692308,2.1561220902692306,-0.8994319854875,0.09675372499875001,0.8051606324658334,10.987651824833334,-43.91043631166667,-1.6678345203875
1970-01-01 00:00:18.540393417,5.16964965828,6.3379521605999996,4.0463914856,-0.8335609047043476,-0.5754274340330434,1.2170800036369567,-3.6652669491956518,-42.91012540043478,-13.386852720347827
1970-01-01 00:00:18.790393417,8.15242195126923,5.7063758380000005,5.615572357307693,-0.06649769915782609,-0.21597130782782603,0.2708314121043478,-11.622700442608695,-40.6073419326087,-16.753950533043483
1970-01-01 00:00:19.040393417,8.755414176346154,6.502829220115386,5.895588138153847,0.19534370861358333,-0.056832893265875005,-0.34091772030625006,-13.455001950000002,-40.35895347666666,-15.94322999375
1970-01-01 00:00:19.290393417,5.3733939695999995,7.127470349159999,3.48811842036,0.6240489068173912,0.1811225486269565,-1.7992487834782607,-2.253113456252174,-43.57469509043479,-11.089879906695653
1970-01-01 00:00:19.540393417,0.8101786863146155,6.9027168801538465,2.3547072073846156,0.6591449603416667,0.665460953805,-0.8462739195541666,15.296474735250001,-42.5207980475,-2.4693228801458336
1970-01-01 00:00:19.790393417,-0.10154882813480004,9.730293749960001,1.4199591797279998,0.07706361454434782,0.3076075769826087,0.10031965206086958,18.842593069130434,-41.208162224782605,3.4468248616521735
1970-01-01 00:00:20.040393417,0.6014147362115384,9.566917032153846,1.622907838,-0.26744545615130433,0.14131345745,0.5785055089086957,16.20605157739131,-42.23835323130435,3.9128236770869558
1970-01-01 00:00:20.290393417,1.9992006408159997,5.71343884284,2.77643836676,-1.4202141295458335,-0.8848045496504167,1.28895255271625,4.83391920717125,-44.21949243458332,-6.324303547766667
1970-01-01 00:00:20.540393417,7.155022976115385,6.540867426692307,5.1482729573846155,-0.4674070652391305,-0.07803969392470868,0.5917496849695651,-1.7039334256173915,-43.56286090304347,-11.716910030391304
1970-01-01 00:00:20.790393417,8.921073532,5.646523378807692,7.1180901631538465,-0.13991515996925,-0.08729863694166667,0.260354682145,-10.642030636666666,-40.30937671666666,-16.230754175833333
1970-01-01 00:00:21.040393417,7.2573941712,6.13498623036,5.831920459040001,0.5385281184695654,0.07305497643434783,-1.2572351538956523,-7.55162504456087,-40.93651962304347,-14.922755449130433
1970-01-01 00:00:21.290393417,2.5240051503588465,7.209716931846154,3.0071600400384613,0.9473942492173915,0.5652570426478261,-1.469852556373913,5.094619585772174,-43.71374113695652,-8.284337582956521
1970-01-01 00:00:21.540393417,-0.012915142809599997,8.43686345228,1.9516056152999999,0.5661825714708333,0.3814296821916667,-0.5300530187487501,15.85877617125,-42.11495447208333,2.0146998366499997
1970-01-01 00:00:21.790393417,0.05891978329807691,9.559507439807692,1.579400235588462,-0.0924297077273913,0.16008619510695657,0.27753432986217386,15.551913469130437,-42.09525879565217,5.02928190647826
1970-01-01 00:00:22.040393417,0.38746625976416,9.10357701428,1.3414684020920005,-0.5420120296416667,-0.20574776981208331,0.52756016144,13.795379479166668,-42.888929684999994,2.2689756552745832
1970-01-01 00:00:22.290393417,1.7779623238000002,7.514143488807694,3.411187169076923,-0.9285812999782609,-0.05277103720478262,1.2891887011652174,7.501567799304349,-44.46318701043478,-2.30030524209087
1970-01-01 00:00:22.540393417,6.719451828038463,4.627920420769231,5.817571528576924,-0.946427362195652,-0.0032724049701565207,1.1890892152695651,-6.7701435916739126,-42.403274038695656,-13.688880857608696
1970-01-01 00:00:22.790393417,7.5197865234800005,3.8201220154,8.251943994,-0.29582924279041667,0.08990375387433332,0.3539335643916666,-13.419515251666667,-38.061756134166664,-20.58369016625
1970-01-01 00:00:23.040393417,7.4498464261538455,4.468116196884616,7.757393417307692,0.6129316823304349,-0.24887236174434782,-0.9393263673347826,-12.334148242173912,-39.12381346347826,-19.021193213043478
1970-01-01 00:00:23.290393417,3.9277961058839996,6.040424871879999,3.5493470946,1.2641065766666666,-0.016359655800416668,-1.6364492475833334,-1.62226760393,-43.65853706958333,-10.07088808275
1970-01-01 00:00:23.540393417,0.5955653616115384,8.287216643730769,2.143012812653846,0.759643624816087,0.0923165853882609,-0.8026358848521739,7.891708581130435,-43.6961281826087,-0.29621439398695637
1970-01-01 00:00:23.790393417,0.7121650451280002,9.8123052062,1.2955019897612,-0.13889530875739134,0.3061765678173913,0.2581354620956522,13.754168966521737,-42.56217459,7.255725839826088
1970-01-01 00:00:24.040393417,0.8472208873630769,9.7354838035,2.0630214631153847,-0.4727791577379166,-0.09054231900166666,0.16811565433833334,12.443820316666669,-43.077989101666674,7.089876810625
1970-01-01 00:00:24.290393417,1.7172174894703847,5.77416755676923,3.0013682380384616,-1.7575529243043475,-0.5928182020513044,1.2893992428913044,4.666398255617391,-44.20623016347826,-6.225995312373914
1970-01-01 00:00:24.540393417,6.552893188559999,4.13298341668,7.173221209639999,-0.9781889816041666,0.0033553012208333345,1.2420023977708334,-10.649114926541666,-37.76420513791666,-22.275592405833333
1970-01-01 00:00:24.790393417,7.810394739038461,2.274278306230769,9.598011985807691,-0.21508475049243478,0.024370233892782613,0.22418499543826084,-17.169654016956525,-31.286094417391308,-28.065368403913045
1970-01-01 00:00:25.040393417,6.80738796404,2.99928894656,8.407698101880001,0.6941715687,-0.02476715519413043,-0.7619013812173914,-14.837620113478263,-33.674929246521735,-26.445037095652168
1970-01-01 00:00:25.290393417,4.3101312666923075,5.801923299923076,4.9339935536538455,1.3797421554583333,-0.19024870136624997,-1.317378973,-5.263195912054168,-41.90761693291666,-15.5189445805
1970-01-01 00:00:25.540393417,1.498108666948,7.358745410079999,2.9993667848000003,1.1000666605956524,-0.053565557734347825,-1.0967022102652175,8.263342277086958,-44.35975298695652,-0.3333230432130435
1970-01-01 00:00:25.790393417,1.1778026697615387,9.556323676115385,2.223482014576923,-0.15092867760966666,-0.19004194097625002,-0.02060131682125001,14.766331673333333,-42.76763947791667,3.953023254833333
1970-01-01 00:00:26.040393417,1.1012196173615385,9.49716784573077,2.089499095076923,-0.38765865363521745,0.3635433704995652,0.2942948500078261,14.957130474347823,-42.79882563782609,2.5097275402173915
1970-01-01 00:00:26.290393417,1.9814774963239998,5.827483685279999,3.4162079590000003,-1.584872204304348,0.07813590481695652,1.4350413239608695,5.416687136043479,-43.98210077739132,-7.543999133043043
1970-01-01 00:00:26.540393417,5.896468998846154,4.326199775153846,7.321804997307693,-1.1191371181833334,-0.09236396677750001,1.2212721333291667,-9.593486984708333,-37.811452706666664,-22.583664734166664
1970-01-01 00:00:26.790393417,7.5652679444399995,1.7987375061559998,9.972843365200001,-0.18840072635304353,0.017255242589565224,0.24562543322434785,-16.634670671739126,-30.93022628478261,-28.77483227130434
1970-01-01 00:00:27.040393417,6.799212887038463,2.847793367730769,8.737048521692309,0.90244503685,-0.23907073074625,-0.8689405979374999,-14.69286688125,-34.07556915333333,-25.890021085
1970-01-01 00:00:27.290393417,4.274269303538461,5.754425917423077,4.28134497426923,1.507445822652174,-0.0695835219152174,-1.510150183695652,-3.740048076543478,-43.01405135391305,-12.411808760086958
1970-01-01 00:00:27.540393417,0.9617440430080001,7.75394758296,2.33694629524,1.1418726282652174,0.2940398331608695,-0.8120633298478263,7.5623868859130425,-44.74866701217391,0.531055678523913
1970-01-01 00:00:27.790393417,0.8049280665915385,9.713013223961537,1.5851632516153844,-0.155102567877,0.005413808234166669,-0.06923995531954168,9.009573777541666,-44.48570219625,1.9841107726249998
1970-01-01 00:00:28.040393417,1.0448093078628,9.649892944360001,1.712642541512,-0.4057846549992608,0.07397592249130433,0.3606443696634782,8.569240238434784,-44.59120460217391,-0.13525355385217394
1970-01-01 00:00:28.290393417,1.615406130223077,6.1032236656923065,3.0909799662692308,-1.8462652713749999,-0.162665805451,1.2867170658416667,-0.28821408755833344,-42.993721485416664,-12.558710953041668
1970-01-01 00:00:28.540393417,5.97966921392,3.7702696837999996,7.99891616808,-1.3365719498478261,-0.04356031671043479,1.2072328717304348,-14.331828200826086,-31.273539170434777,-29.084832232608694
1970-01-01 00:00:28.790393417,6.969351389961539,1.1648661099730768,10.674544478423078,-0.11022705459916667,0.18656745429541666,0.247525345385,-16.673529942916666,-23.998732408333336,-33.44392450541667
1970-01-01 00:00:29.040393417,6.010232426576924,2.157457774269231,9.058683524115384,1.033000959,-0.22368721097565214,-0.8037454809826086,-12.041187576043475,-30.570311090434785,-27.53166754391304
1970-01-01 00:00:29.290393417,4.2280058166000005,5.71945034172,4.51758164072,1.628099591826087,-0.5313594759886958,-1.3463776526956521,-4.463736741426087,-40.000172490434785,-13.948303098043475
1970-01-01 00:00:29.540393417,1.3857548463346154,8.294770167461538,2.308672168423077,1.0993002430016667,0.4208766946929166,-0.7914145496291667,7.1691478095,-42.09677632541667,2.4885602792541666
1970-01-01 00:00:29.790393417,1.467524267504,9.38700961292,1.7372094543320002,-0.20735433118773908,-0.08353037502434782,0.06333530402173913,9.725537589739131,-41.37251314826087,6.646182371260869
1970-01-01 00:00:30.040393417,1.6452460010953847,9.47812283426923,2.1582868195,-0.50005705973375,0.04014568326791669,0.2914679457141666,8.602800448708335,-43.68427959958333,8.5223745505
1970-01-01 00:00:30.290393417,1.9063696838800002,5.7317248168,2.9055957823600007,-1.9376212255652172,0.30981821502,1.2106427420434784,-0.4267911911478262,-44.65359513652174,-4.327050830899999
1970-01-01 00:00:30.540393417,6.303282641,3.109650755692692,8.428079487615385,-1.2590153177826087,0.06975914485713047,1.2279284363826086,-13.703868369130436,-36.07792257304347,-23.278553922173916
1970-01-01 00:00:30.790393417,5.297938649153847,0.32110533498076926,11.470733026538465,-0.2949480953045833,0.2748657346210417,0.146081859545,-16.26323540916667,-27.058850924166666,-31.75055654875
1970-01-01 00:00:31.040393417,5.222729278519999,1.145238464296,9.910824335080001,0.9108158401826086,-0.22918251197273912,-0.6533817596913043,-13.338933488260869,-26.909061598695647,-31.286360534782602
1970-01-01 00:00:31.290393417,4.429588623038462,4.974403751038461,5.792561997615384,1.7076284486666664,-0.5847799995291667,-1.1328155398333335,-8.300825833916667,-37.92816654833333,-18.478716651875
1970-01-01 00:00:31.540393417,1.748010992436,7.147378948999999,2.5505161743199998,1.4407273504173916,-0.027811370143434787,-0.9023106487086955,1.6456976766478262,-43.107850446521745,-0.4077267024869565
1970-01-01 00:00:31.790393417,1.2155702854846155,9.927402015346154,1.2726592606615386,-0.0773998016252174,0.14074580921599997,0.06791771773882609,6.52268480226087,-42.329836140000005,7.40535049852174
1970-01-01 00:00:32.040393417,2.038397668796154,9.790442593153845,1.9781134150076924,-0.33803308096083334,-0.03926138975458333,0.09697124081791665,6.068170229624999,-42.864833197083335,6.848870734291666
1970-01-01 00:00:32.290393417,1.740137365736,6.22685319208,2.7618886229840003,-1.9648471007695651,0.22246971389043482,0.9440815241347825,1.6607515915191302,-44.41836713739131,-0.30618107837913067
1970-01-01 00:00:32.540393417,5.240032143115385,3.231531917856923,8.225044009884614,-1.5276165928208334,0.13665999685408334,1.1063563674916665,-9.481844703791667,-38.028205076666666,-21.092871069583335
1970-01-01 00:00:32.790393417,5.714205249079999,0.6665698608496,11.244005969599998,-0.22654669797086957,0.0961394567702609,0.1563202571934783,-14.341775230869564,-30.102936867826088,-30.1456720926087
1970-01-01 00:00:33.040393417,5.0083600617307695,2.4008228477692306,9.73595589826923,1.0290188063652173,-0.256440470967826,-0.8686106710434782,-13.50994636695652,-30.667491083478264,-28.61868999304348
1970-01-01 00:00:33.290393417,3.8342477944999995,5.573573156423077,5.10577287526923,1.767135704666667,-0.5099876448541667,-1.1646569122916668,-10.319613457291666,-35.85026486625,-21.92142081208333
1970-01-01 00:00:33.540393417,1.16569193124,8.517665423839999,1.9338046326120002,1.3435780224434781,0.5624420759656522,-0.6141883737478261,-5.668226781130436,-41.296113884347825,-11.86684475678261
1970-01-01 00:00:33.790393417,2.178863261351923,9.194266961884615,1.6943669304530766,-0.23231161867208336,-0.31961487800416666,0.15529733965958334,-4.619622945875,-42.072644393750004,-9.643539149791666
1970-01-01 00:00:34.040393417,1.9083216248400001,9.27811406252,1.7367963133520001,-0.12291337873565217,-0.00027055747260866693,-0.07730373753969565,-5.022651713826087,-41.779035816956515,-10.674826456521739
1970-01-01 00:00:34.290393417,2.2598851600546155,9.267320814923076,1.762820733923077,-0.43817228630434785,-0.0933796270956522,0.11561984034608694,-5.0621417501304355,-41.2267988447826,-12.57448030521739
1970-01-01 00:00:34.540393417,1.82960930784,5.5473562134,3.5383240173200003,-2.261075437041667,0.41661352142187497,1.0659769749124999,-8.341984312000001,-33.39332469291667,-25.141077995416666
1970-01-01 00:00:34.790393417,4.962681972846155,2.665933086745,9.5632611725,-1.3544422284347826,0.27813473939434785,0.9203803608000002,-13.737995313043477,-13.210987090391306,-38.665606954782604
1970-01-01 00:00:35.040393417,4.433399928115384,0.3116116156784615,11.968010471538461,0.02760775449333333,0.07323635060966667,0.1873803009075,-12.687131287083334,-4.244786183083334,-41.289545535416664
1970-01-01 00:00:35.290393417,4.17145341792,2.4014561462199997,9.698493878399999,1.2340252994347825,-0.4188170397103913,-0.9105787329826087,-12.484851547391303,-12.060584255086958,-39.54500148565217
1970-01-01 00:00:35.540393417,3.7034083380384617,5.830404457692307,4.889662663423078,1.631761976,-0.7540269397499998,-0.9159484376434783,-13.892751072173917,-28.063964512173914,-29.47582991173913
1970-01-01 00:00:35.790393417,1.767494476304,8.20121748032,2.159439422736,1.337123488425,0.26879420596625,-0.6247182525666667,-8.941469192375001,-39.535436789166674,-14.761304377958334
1970-01-01 00:00:36.040393417,2.1288211705807694,9.396651869500001,1.7498323588150002,-0.3119595717243478,-0.1946719619417391,0.0806520665521739,-6.765789861304348,-41.62377929739131,-10.228516992434782
1970-01-01 00:00:36.290393417,2.656439367346154,9.195798392653845,1.7719402313923074,-0.22912697416625002,-0.3593991135833334,0.18441921720749999,-9.23680619375,-40.562472025,-12.329334099999999
1970-01-01 00:00:36.540393417,2.323234808428,8.36131854852,2.168492596504,-0.12537711222669568,0.14580015433434781,0.19048785240652175,-10.240375021391305,-39.72225852695652,-14.184825648260867
1970-01-01 00:00:36.790393417,3.7577338291271922,9.233496921115385,2.0565100039692306,0.12286340040347828,-0.27930995303608697,-0.2686640194417391,-9.251080139782609,-39.94239160304348,-14.241798856956525
1970-01-01 00:00:37.040393417,2.476659759516,9.1313891782,2.9372040527039998,-0.07483655455374999,0.09407729881254163,0.09646335415666667,-9.511047323541666,-39.956789970833334,-14.047614176666668
1970-01-01 00:00:37.290393417,2.362214672423077,8.987431693653845,2.5269355950000003,-0.386428636697826,0.020636215316956523,-0.002382079399999971,-9.040732052217395,-39.298780358695645,-16.05319350695652
1970-01-01 00:00:37.540393417,2.8079819254230767,5.570896031307693,3.669975938,-1.8754761765458332,0.509755135627875,1.3277107303625,-12.698594531749999,-31.63717730833333,-25.80723619375
1970-01-01 00:00:37.790393417,5.3991344420799985,3.30964755256,9.34648588244,-1.101266298569565,0.39746174491652175,0.609853127068826,-17.14778800652174,-13.196803384086957,-37.40118308695653
1970-01-01 00:00:38.040393417,4.647949923038461,1.1272654548153846,11.226947671923076,-0.05404905464539131,0.23621015542391305,0.027909650170434782,-14.416934138260869,-6.579241275782608,-40.40864131782609
1970-01-01 00:00:38.290393417,4.293647314400001,3.07304357304,9.63596590596,1.0535357074166667,-0.4643647011320833,-0.8127339333041665,-13.678437233333334,-12.374956548333335,-39.088872432916666
1970-01-01 00:00:38.540393417,3.7235990436153843,5.867072436961539,4.685665723346154,1.8031233341304347,-1.041790778173913,-1.0513904119739133,-16.35501177347826,-27.952592020434786,-28.122595496521736
1970-01-01 00:00:38.790393417,1.7776399172355768,8.805087803153846,2.0515645188692306,1.2614926680679166,0.8833568940750002,-0.30136498095791664,-11.671215891875,-39.885229269999996,-11.863650759499999
1970-01-01 00:00:39.040393417,3.78977113036,8.87066735232,0.23119123528359997,0.24553093282565222,0.30013856456043475,0.04434515034821739,-8.794566071565217,-41.78336583086957,-7.811143191043477
1970-01-01 00:00:39.290393417,3.8203497724615385,8.685405913153845,0.8061601198869233,-0.0577865605726087,0.18293459310521737,-0.1713882561743478,-8.276915011217389,-42.040931702173914,-6.936536457304347
1970-01-01 00:00:39.540393417,2.7292744445719994,9.65941913488,1.265965411372,-0.5623031857391666,0.46083912695416657,0.24050632934458335,-4.139545639333334,-42.64316511125,-6.501572102250001
1970-01-01 00:00:39.790393417,1.7533788299615385,8.318530373038461,2.954216291,-0.6094275178543478,-0.5094478053130436,0.1328082631978696,-6.082507796869565,-40.377327628695646,-14.479899365347826
1970-01-01 00:00:40.040393417,3.2042770561923075,9.055183111230768,2.9514355351153845,0.31731659596708334,-0.20976990825545835,-0.24186356800375,-5.62817517925,-40.99422248208333,-13.072166999166669
1970-01-01 00:00:40.290393417,3.52777395632,8.85836293936,1.4615427063347999,-0.3618149496375652,-0.9199112744695652,-0.6878740009869565,-3.13099073326087,-41.45888170956521,-12.412680335652176
1970-01-01 00:00:40.540393417,0.9851417717461537,8.566121274499999,4.149653443523077,-0.8379329124399999,-0.19192109140000002,0.08348605037434782,-2.2867975649565215,-38.3910527426087,-19.86839547434782
1970-01-01 00:00:40.790393417,0.23982528076800005,7.599379009480001,4.5797024596,-0.799491793485,0.7033392375979167,0.023903724733416672,-0.9785212675166667,-36.4947719575,-23.38451965666667
1970-01-01 00:00:41.040393417,4.408183135934616,3.0517557642235,7.279650350423077,-1.813409551321739,-0.025191815139565258,1.6047295734130436,-6.894089077490435,-20.679404009565218,-36.72706222608695
1970-01-01 00:00:41.290393417,4.260877920269231,1.4475647735968153,12.306358795384615,-0.3591597524241667,0.08094023246416665,0.10747038272320834,-6.2687209845,-8.513864100333333,-42.042424679166665
1970-01-01 00:00:41.540393417,3.3827794738800003,2.472516375848,9.398020715240001,1.2093862167130434,-0.24227469706086957,-0.8200159423086955,-5.715046053478261,-14.228333389043478,-40.42535748652173
1970-01-01 00:00:41.790393417,2.125671950076923,5.998182484576923,5.784386690576924,1.9379505664583334,-0.5024263635333334,-0.7546985372875,-4.689206838666666,-29.53238232958334,-30.812042155833335
1970-01-01 00:00:42.040393417,1.1897259521752002,9.09749366436,2.2308888427999998,1.0557925776695651,-0.2045373779359565,-0.5649501840095652,-0.7693793255213042,-40.71830533956522,-14.410957088260869
1970-01-01 00:00:42.290393417,1.3051129267484614,9.201014468923077,1.3270826251946155,-0.12270461860191305,-0.3420868851734783,0.21219424623826083,0.15902809479043484,-41.72750124782608,-11.954558455652174
1970-01-01 00:00:42.540393417,1.72672848035,9.397866651076923,1.5502857794615383,-0.13306565757133335,-0.06869326060816666,0.13313118657025,-2.402884046125,-41.278882502916666,-13.217739383333333
1970-01-01 00:00:42.790393417,2.4414769226,9.09475136724,1.92489515988,-0.21683271706869559,0.31342061641652175,0.2175167993405652,-3.3421937280434775,-40.68169884130435,-14.748331899565217
1970-01-01 00:00:43.040393417,1.6960365354496152,9.030847179192307,3.589898229692307,0.12022234954629167,0.5410956276145833,-0.15232896369625,-2.894166747691667,-40.5953009925,-15.072593092916668
1970-01-01 00:00:43.290393417,1.7978932617519998,8.48773965448,0.809798016332,-0.7436247876695651,-0.6214941555608695,0.4579103413360869,-2.997960837047826,-39.77015321173913,-16.93310405782609
1970-01-01 00:00:43.540393417,3.145478175238846,4.686028430626923,5.3129881228461535,-2.7577169356521742,0.1427582687391739,0.7342836750426087,-7.954512637695652,-26.694977470000005,-32.034335676521735
1970-01-01 00:00:43.790393417,3.450261682346153,1.7234871437759613,12.520885761153846,-0.7714423508966668,0.6333961744933334,0.43886213561666665,-6.182268102999999,-7.310127297666667,-42.16973622583333
1970-01-01 00:00:44.040393417,2.7638585266,1.6922190123840002,11.123051495559999,1.2274661244652176,-0.08044404439130436,-0.40706465506,-4.876110450130435,-8.699632292391305,-42.08025642130434
1970-01-01 00:00:44.290393417,2.5496594942307693,5.792510182269231,6.20436718276923,1.7997119525833334,-0.6905265674041668,-0.5490958231208333,-5.997553189666667,-25.02340126,-34.44590767208333
1970-01-01 00:00:44.540393417,1.490672131276,7.43570936308,2.80183156128,1.6067118748608697,-0.3412640813913043,-0.6446744359000001,-5.070663535000001,-38.36829774173913,-18.86815697217391
1970-01-01 00:00:44.790393417,1.9158198782607696,9.820610627923076,0.9405402902446922,0.01200158418434783,0.20866477327956526,0.047646786567391325,-2.4756116453173913,-41.81091673434783,-11.388668350434784
1970-01-01 00:00:45.040393417,1.1608245145153844,9.776337309423077,0.9922577432063077,-0.020154245093750002,0.191164563519125,-0.07105922520041667,-2.3756891092333334,-41.82643477125,-11.378809491666667
1970-01-01 00:00:45.290393417,1.86266057736,9.60153151256,1.3297028686663999,-0.5653417291826086,-0.757945301730435,0.18906838350391306,-2.4424599771869566,-41.074542833478255,-13.682577299999998
1970-01-01 00:00:45.540393417,1.495206087446154,6.524228949923077,3.111072798503846,-1.9451963330375,0.5132501864738749,0.6414683771416666,-6.435445666416666,-34.97302778541667,-24.02450982791667
1970-01-01 00:00:45.790393417,3.5739499329599997,4.0000119324000005,8.32154924924,-1.6823883419565218,0.44984262290913046,0.9474515914913044,-9.339248657043477,-15.748920191956522,-38.918094138695665
1970-01-01 00:00:46.040393417,3.7241114395384614,0.568172325743846,11.924140161153845,-0.765894121724348,-0.06435904951047829,0.1902464135856522,-7.67317659952174,-1.7647717076704346,-42.59465458173913
1970-01-01 00:00:46.290393417,3.8559756880769234,0.943758597726923,10.75694812003846,1.0741123880249999,-0.3324961085695833,-0.6370427622479166,-9.322105487125,-3.627006390395833,-42.07081763
1970-01-01 00:00:46.540393417,3.533617804,5.00215396732,6.26124567248,1.6337158057826082,-1.1580188611739128,-0.9400864787478261,-13.269558657391304,-20.582511570434786,-35.263825374347824
1970-01-01 00:00:46.790393417,2.2711175712884613,6.809483836153846,2.7503057098365384,0.8509164073999999,-1.379291653595833,-1.3423517370750002,-14.440857966666668,-34.03799978916667,-22.209288359166667
1970-01-01 00:00:47.040393417,1.7851936706839602,10.15111065644,1.1916419677832,-0.05339251961217396,-1.118535694921739,-0.1483423561695652,-12.260619080782607,-39.60116112826087,-12.700686289130436
1970-01-01 00:00:47.290393417,2.474285466180385,9.141530474,1.6068335723230769,-0.3190688960521739,-0.05001312412391302,-0.3479423504943478,-11.054721665695652,-39.48517227130434,-14.190549395217392
1970-01-01 00:00:47.540393417,0.5976840327042308,9.455980418192308,2.388548372726923,-0.48117300666249996,-0.1355331315075,0.39125667171570827,-9.700693169958333,-38.54005877166667,-17.385776441249998
1970-01-01 00:00:47.790393417,3.54911956788,4.9759045531999995,3.5341327332,-1.1216612459347826,-0.2258676222495652,1.8613200704782609,-22.25407293521739,-27.99056691652174,-23.739561578695653
1970-01-01 00:00:48.040393417,8.369274849423077,4.626388989961538,6.002511942961538,-0.4701410178,-0.12327100895916669,1.1604648406,-31.620605468333334,-12.391742825458332,-26.742275795
1970-01-01 00:00:48.290393417,9.90216633924,3.9201619812799997,7.370965997240001,0.12404118253286954,-0.06612501858330434,-0.4184813293886957,-33.276281770869566,-7.001594584913043,-26.960429066956518
1970-01-01 00:00:48.540393417,6.789097383923078,5.119457878846154,4.8915913449615385,0.7691229840652174,0.1889284073321739,-1.5319892997391305,-30.066023949999998,-17.612290756086956,-25.371245259565217
1970-01-01 00:00:48.790393417,2.6728993694999996,8.274464316615383,3.3037049101923084,0.84230938805,0.3870208337916667,-1.4033782044879166,-15.962465763749998,-33.59690872875,-21.445026080416667
1970-01-01 00:00:49.040393417,1.2141611389559999,7.149474591000001,3.3055999695200002,-0.08452185323913045,0.049254828010217404,-0.010803796752608692,-11.339929538695653,-37.42275403913044,-18.852310098260872
1970-01-01 00:00:49.290393417,1.0385748878153847,9.313568872346154,2.806692299423077,0.21622922312783333,0.4025243970883334,-0.11579684005695834,-10.200981954375,-37.65346956208334,-19.011012315833334
1970-01-01 00:00:49.540393417,0.5380052124,9.496593731599999,2.7472730164,-0.17264517007478264,0.3377836894043479,0.1216639214352174,-7.315730592478261,-38.37821048217391,-18.920751158260874
1970-01-01 00:00:49.790393417,0.3642905308615384,8.798829662615384,3.310602106,-0.7039410006043478,-0.21496788220252178,0.34278150556260867,-8.351687161695653,-36.225496208695645,-22.312865629999997
1970-01-01 00:00:50.040393417,2.8770632699769227,4.372470861692308,4.862787780769231,-1.5602708111666665,-0.36306981698699997,1.3524847452791666,-16.826272249166667,-24.61164832125,-30.846816540000003
1970-01-01 00:00:50.290393417,7.19241729128,3.73890091552,8.73256453856,-0.43720406666826095,-0.33922216733043475,1.155837149747826,-25.71617864434782,-8.368211455999997,-33.75097755739131
1970-01-01 00:00:50.540393417,8.34986137396154,2.9170474301923077,9.655037630115384,0.14913299851075001,-0.03359958071916667,-0.28719326061958333,-27.641926368750003,-3.511262238083333,-33.27699454541666
1970-01-01 00:00:50.790393417,6.035101940839999,4.17815348504,6.92788738408,0.7526828815304348,0.10152686299043479,-1.4107595786086957,-25.895246422608697,-12.929271677347826,-32.03847254869566
1970-01-01 00:00:51.040393417,2.5802017504999997,6.33524694,4.511951963038462,1.0674857082608697,-0.07822062915678261,-1.2146652807086955,-18.346634947391305,-27.900006833043477,-27.328000441304347
1970-01-01 00:00:51.290393417,0.746014040423077,8.668174438615385,3.008115744923077,0.5667103985566667,0.30412809953519165,-0.2926004924666667,-11.430906175999999,-36.83459949416667,-19.793724299166666
1970-01-01 00:00:51.540393417,1.24815245364,8.966318444879999,3.04517153324,-0.13640113409956522,-0.1281560954256522,0.06127513998147826,-10.619433652173912,-37.453631194347835,-19.20756472521739
1970-01-01 00:00:51.790393417,0.8094935725,9.26774685196154,2.8797749387307694,0.019858993900416667,0.26687504326274997,-0.026835108363333332,-10.492548504666667,-37.27604166625,-19.620840946250002
1970-01-01 00:00:52.040393417,0.8174040456846152,8.964132068384616,3.0751187191923077,-0.46487110593478265,-0.14295362130726086,0.34986662957973913,-10.44951111330435,-36.40973331652174,-21.146045601304348
1970-01-01 00:00:52.290393417,1.9266195739124001,5.471571807919999,3.8996725891599997,-1.3514653340434781,-0.38254748851695647,1.2026859988608698,-18.611767644347825,-27.09030549391304,-27.71103568652174
1970-01-01 00:00:52.540393417,6.89264167803846,4.568436426153846,7.378905487076924,-0.7860591374833333,-0.2287499296883333,1.0072264262250001,-27.0470592975,-12.067426125083331,-31.44968295125
1970-01-01 00:00:52.790393417,8.12970219732,2.9469697448799996,9.134418878159998,-0.08809120973347827,-0.08545751887491303,0.10173323062630438,-29.646463807826084,-3.903848150434783,-31.465494488260866
1970-01-01 00:00:53.040393417,6.9456257276153845,4.046794263346154,7.895648222807693,0.5341695760999999,0.10148951929317389,-0.9795031054608694,-28.982129222173906,-8.600109472956522,-30.9975338826087
1970-01-01 00:00:53.290393417,3.495277686538461,6.016196946384615,4.939422648461539,1.1535658314250001,0.27042101704375,-1.4097348575875002,-22.50046618791667,-23.64449489125,-28.00227498958333
1970-01-01 00:00:53.540393417,0.56874528809048,7.1423494080399985,3.32770001216,0.7883027610304347,-0.25529234516086957,-0.6139728077043478,-14.521283439130434,-35.26935610565217,-20.46757490826087
1970-01-01 00:00:53.790393417,0.9131702833480768,9.851884054961541,2.219607379653846,0.14644792643652174,0.023268825414782594,-0.11074885415917392,-12.236081164782611,-38.274428491304356,-16.43142567521739
1970-01-01 00:00:54.040393417,0.5628116271669201,9.84157833348,1.8165863892319998,0.025789098807500004,-1.3665739570916668,-0.3718544437583333,4.393210966833333,-38.647383372499995,-11.684113543083333
1970-01-01 00:00:54.290393417,-0.04879276568653847,8.529384208153845,2.472218610346154,-0.6049299900826086,-0.0962558932026087,0.6595435479434782,16.453404758695655,-38.00885573739131,-13.18508239521739
1970-01-01 00:00:54.540393417,3.5223713450376923,6.073907705499999,2.9792833944384616,-0.6415390204083333,-0.3115919356620834,1.591384954716667,9.723065098,-40.037516911666664,-16.000655531666666
1970-01-01 00:00:54.790393417,7.80011158452,6.1202329101999995,5.552810870399998,-0.2731438233695652,-0.08053725814586957,0.9171512385695655,2.132325545644783,-39.55789947478261,-19.870210067826093
1970-01-01 00:00:55.040393417,9.222696304538463,5.792337464615386,6.163686394307693,0.12168191414956518,-0.0652150168887826,-0.1411223690654348,-0.6810082145908695,-39.101267773478256,-20.921372953043477
1970-01-01 00:00:55.290393417,6.6378196599230765,6.841799328153846,4.586422101576923,0.3407843398583334,0.29208896621304165,-1.4318633899125002,7.559388080624999,-39.10419575333333,-18.93415156916667
1970-01-01 00:00:55.540393417,1.707768676756,6.5947581300000016,3.3810131469599995,0.5924463427608696,0.13605654513208693,-1.3276681588260868,23.304282976086952,-35.233316504347826,-12.783541637826088
1970-01-01 00:00:55.790393417,0.19363963199730766,8.919973895692307,2.811315378038462,0.25142312574885967,-0.26505232974083337,-0.558595247545,31.42197402333333,-29.50061496041667,-10.303465763333334
1970-01-01 00:00:56.040393417,-0.08707692258879998,9.234812109159998,2.5319248352800003,-0.13499183640521742,0.09986550264347828,0.05710193255434781,30.796760559565215,-29.97349142,-10.203305865913045
1970-01-01 00:00:56.290393417,-0.02777877220961537,9.260199086192307,2.918912781884615,-0.059030640306956525,0.3698677848221738,0.13781784191000002,20.505687049999995,-38.000849683478265,-10.090220286086955
1970-01-01 00:00:56.540393417,-0.08087220999115385,9.032948579038463,3.109034728961539,-0.19666238087774998,-0.16116342013758334,0.2539067932441667,20.312242110833335,-38.15042924916666,-9.874545693708333
1970-01-01 00:00:56.790393417,1.54663176264,6.08003250724,2.8856093444920003,-0.7087695533695653,-0.7520409883913041,1.2943137106869564,10.812956560521739,-39.544538249130426,-16.116693330869566
1970-01-01 00:00:57.040393417,6.440455081692308,6.945320592961537,5.104523550192307,-0.3933255647666667,0.122149188539375,1.5752910549791668,-5.356956203964167,-37.72751633375,-22.39746014333333
1970-01-01 00:00:57.290393417,8.90861044916,4.99537606192,6.41078470452,-0.002757652137165214,-0.1395080522143478,0.25182547063826094,-10.863845577521738,-36.31831310130434,-23.373633343043476
1970-01-01 00:00:57.540393417,8.13914571319231,6.1261836125,5.919532576269229,0.2842245370782609,0.009180814743304348,-1.0119368382695653,-9.233119176695652,-37.52189321000001,-22.012933150869564
1970-01-01 00:00:57.790393417,3.5173740445,6.695282856846154,3.8849116691538463,0.6221970021791666,0.3587703025071667,-1.5575913935416665,0.9434799352538331,-40.34688409166667,-17.68710978833333
1970-01-01 00:00:58.040393417,0.56926620486,7.22051685792,2.78327015996,0.6530740351739128,0.2649031385908696,-1.0403413086391304,16.525011062608694,-39.72065519304348,-10.26633556973913
1970-01-01 00:00:58.290393417,-1.072364237853846,9.628634843,2.480065753653846,-0.07357747666791667,-0.10185472667708334,-0.09413116639404166,21.849912325416664,-37.93971554416667,-7.268228709708333
1970-01-01 00:00:58.540393417,-0.5911207580269231,9.595588179538462,2.3142682237307692,-0.029779681103130437,-0.005174862625217394,0.0921580775443913,22.018215843043482,-37.65522666521739,-8.209194100391302
1970-01-01 00:00:58.790393417,-0.2651765624884,9.379932330359999,2.6655130371199998,-0.27983806507826087,-0.19983465533217395,0.21133887142769564,21.24275199217391,-37.727479852173914,-9.712733517826088
1970-01-01 00:00:59.040393417,0.68296054549,6.446914725653846,2.7993748240346155,-0.6763348430208334,-0.4875015722,1.3951959114166665,13.286828199875002,-39.57333691875,-14.942764639583336
1970-01-01 00:00:59.290393417,6.17622846688,6.59641668084,5.485432983320001,-0.6261361189913043,-0.14976653408521737,1.55129816226087,0.508732422530435,-39.79836041043478,-20.164734798260874
1970-01-01 00:00:59.540393417,8.974403017499998,5.192033879269231,6.591686747615385,-0.057126622112083324,-0.07222795836208333,0.3807439443741667,-10.152537981875001,-36.95412095458334,-23.332945268333333
1970-01-01 00:00:59.790393417,7.663089523307692,5.725265403115386,5.711471011807693,0.29618455891391304,-0.004763986747869569,-0.9541404066347827,-7.67234080778261,-38.17136864086957,-22.157125805217394
1970-01-01 00:01:00.040393417,3.7622942687600003,7.222426886000001,4.09630369272,0.5941646980347827,0.16313150062739132,-1.498185531,0.6467621430417391,-40.74897085956521,-18.634354051739134
1970-01-01 00:01:00.290393417,1.01420441266,7.126927554461537,3.2253889231153847,0.51145407387125,-0.3185046936579167,-1.2703635792333334,12.758575638833335,-40.74843788166667,-13.36035359
1970-01-01 00:01:00.540393417,-0.16178356933159999,9.54661970192,2.83772691656,-0.11284069684652173,0.09223900849130433,0.10346523923869569,18.031976617391308,-39.3622932426087,-11.932693563913043
1970-01-01 00:01:00.790393417,0.035395625168461536,9.352741259115385,2.8376721074615383,-0.041172847810833337,-0.05980235951583334,0.037263306139916665,17.576784530416667,-38.599501609166666,-14.182477076666666
1970-01-01 00:01:01.040393417,0.13317114610076924,9.029949047423075,3.173729042615385,-0.2716268082313044,0.14440427413739132,0.3084876854726087,19.326290793913046,-37.861901655652176,-13.269293536956525
1970-01-01 00:01:01.290393417,1.790917767376,6.354938836520001,3.0592123352,-0.7417103894695651,-0.23093973650782604,1.4493983957695655,12.852389252391303,-39.095688861304346,-16.064305139130433
1970-01-01 00:01:01.540393417,6.492869162884616,6.16970272946154,5.5253158159230775,-0.524503185725,-0.5131023141283749,1.3667904337,-0.7719408670541666,-38.4204216,-21.057343006666667
1970-01-01 00:01:01.790393417,9.204929404692308,5.835113895115385,6.344308864923078,0.018934423415652178,-0.037393185833043484,0.17770117383669573,-9.658374372391306,-36.075065943478265,-23.460277060434784
1970-01-01 00:01:02.040393417,7.379815594480001,6.10635975948,5.2541758849999995,0.3976129870916667,0.07832276392144584,-1.2326183146291667,-4.8972319763375,-38.05218617083333,-21.426120678333334
1970-01-01 00:01:02.290393417,2.889769539461539,6.465677631115384,3.6395430696153848,0.5927039566347826,0.21236210866956523,-1.5754991510434784,6.034803597695651,-40.75396794956522,-17.334947004782606
1970-01-01 00:01:02.540393417,0.29969478150078,8.55314763784,3.03533997812,0.3986334139750001,0.12021841013504345,-0.9360671237865219,16.25742323391304,-40.38419076565218,-12.236770796086956
1970-01-01 00:01:02.790393417,-0.7475857720176923,9.373542234576922,2.5274825345,-0.08261156939595833,-0.01401638395666667,0.02786598276208334,19.621822753333333,-39.34122022083333,-11.260613719583333
1970-01-01 00:01:03.040393417,-0.9691711367276155,9.263060443576924,2.756517791730769,-0.0911798230112174,0.3298312625604347,0.03783482200565218,21.041603502608694,-38.2347985973913,-10.420244714608696
1970-01-01 00:01:03.290393417,-0.5231201660347999,9.235835980240001,2.9807934081600003,-0.30285004340916666,-0.36551892507916667,0.4837392903791667,21.481488227916667,-37.141154288749995,-10.592724044458334
1970-01-01 00:01:03.540393417,1.4069818584765383,6.0504008190769225,3.2820288320384616,-0.7335685750652174,-0.08804282967604349,1.4733042301652175,12.31335100969565,-38.731102820434785,-16.943368414347827
1970-01-01 00:01:03.790393417,6.362566973879999,6.5741370117199995,5.776631433119999,-0.5356053774869565,-0.2614512318052174,1.473387674104348,-1.4090138310208693,-38.958662116086956,-21.802903797391306
1970-01-01 00:01:04.040393417,9.078494250923077,5.496794357346153,7.070673382076922,-0.0030622622437500024,-0.26020724760416664,0.024705696857083338,-9.2543230455,-37.11977926875,-23.575718561666665
1970-01-01 00:01:04.290393417,7.244513802153847,6.064886081384615,5.051234365653846,0.4877879749217391,0.042167597815304346,-1.2425440134826085,-9.172578894739132,-37.56424049652174,-21.512580208260868
1970-01-01 00:01:04.540393417,2.8417206115999996,7.0579129944,3.2264984618400003,0.5961138854416667,0.2192555418099167,-1.6558703332916664,6.541819175516667,-40.748642762083335,-15.437911628750001
1970-01-01 00:01:04.790393417,-0.373179737971923,8.60831046453846,2.650302129723077,0.3988737535143479,0.3254267696434782,-0.6586843853169565,20.71827490391304,-38.287700156086956,-8.29008114830435
1970-01-01 00:01:05.040393417,-0.6431663748653846,9.207618043923077,2.282609059303846,-0.09852469192652173,-0.009575773078608699,-0.012103490780434793,22.710474346086954,-37.547312031739125,-6.772167454608694
1970-01-01 00:01:05.290393417,-1.1145462891344,9.407546905319998,2.46267883304,-0.06881366142116667,0.24650749075375003,0.1675622255805833,22.927666742916667,-37.31703249625,-7.320151686708333
1970-01-01 00:01:05.540393417,-0.3232412778413847,8.93000304003846,2.7602139517692303,-0.40580782424347833,-0.5963935894117391,0.4577550596173913,21.996091924782608,-37.40282125130435,-9.134794857130435
1970-01-01 00:01:05.790393417,1.8876945190563998,6.49955011604,3.32307163708,-0.8762748812458333,-0.32795488799083333,1.2804666385208334,13.844236611666668,-39.29421885833333,-14.5987112125
1970-01-01 00:01:06.040393417,6.455562127807692,6.329288177461539,5.631600564769231,-0.3604870399652174,-0.23441961354943477,1.3118663636869565,1.2888217593434783,-39.59106677608696,-18.838642866956526
1970-01-01 00:01:06.290393417,8.43219017026923,5.327519443269231,6.843129254884616,-0.17198858248639134,-0.16749974486478258,0.278022395018913,-11.132898745782608,-35.79147454913043,-23.785494679999996
1970-01-01 00:01:06.540393417,7.572213501079999,5.784133831759999,6.184377520799999,0.3732090008708333,0.021479326596999998,-1.0796844798125,-8.352141578916667,-37.18715159125,-22.554303645833333
1970-01-01 00:01:06.790393417,3.711370626576923,7.0264115788461545,3.741256555461539,0.6727147128217392,0.3849674612269565,-1.5469758979130435,5.928437605721739,-40.40476840521739,-16.665810336956525
1970-01-01 00:01:07.040393417,-0.06417616036934613,7.172312023423077,3.003176017230769,0.6254707376124999,0.34839126869916665,-1.0621750230708333,16.22595270333333,-40.54710531166666,-10.016321896958333
1970-01-01 00:01:07.290393417,-1.4946897766319998,9.69285360732,2.4183410339999996,-0.11700424664869565,0.062092417274347826,0.07520098534347826,20.79513823521739,-39.32407760565218,-6.66286557652174
1970-01-01 00:01:07.540393417,-0.4706328523696154,9.554348936730769,2.4074436950384617,0.01783785660869565,-0.11624539128173911,0.08045979483391305,20.654821478260867,-39.226805479130434,-7.662874823043478
1970-01-01 00:01:07.790393417,-0.651247723388,9.413935620159998,2.7845754456800007,-0.24882922383749997,0.11124301170491667,0.3422954479145834,21.52487762708333,-38.04275576291667,-5.76244741675
1970-01-01 00:01:08.040393417,0.26635956397076926,6.568456209653846,2.867621366061539,-1.0222333047608696,-0.09349257239521737,1.4217499338391304,14.236544816043478,-39.773592576521736,-10.074505971608696
1970-01-01 00:01:08.290393417,6.040469548115386,6.383227932307691,5.940736559346154,-0.8315959796125,-0.6311530203833333,1.2497560084166668,-2.1359227895487503,-38.14960066416666,-20.54406984666667
1970-01-01 00:01:08.540393417,8.690478058,4.90414976804,7.2444191528,-0.1981823624947826,-0.2565886818852174,0.411584149923913,-12.85188351473913,-33.43659973260869,-24.958030784347823
1970-01-01 00:01:08.790393417,7.983717005730771,4.852608947807692,6.460006731384615,0.4603655286434783,0.10887129803521738,-1.0201920452565219,-11.201133728173913,-34.79681811130435,-23.720498625217388
1970-01-01 00:01:09.040393417,3.5306502826538457,6.723550996076923,4.162474858153846,0.8690300360333333,0.4438859195541667,-1.5457119048749999,3.2377477087608333,-39.80243698666666,-16.756727336666668
1970-01-01 00:01:09.290393417,-0.2746788024884,7.48681309216,2.83652341916,0.631862442126087,0.2770390283782609,-1.1475154420043479,18.424343524347822,-38.64105722173912,-7.802933879913042
1970-01-01 00:01:09.540393417,-1.3493920017346155,9.519563580423076,2.4675725027692303,-0.13006675273958335,0.18162575585208332,0.051957688679583315,23.522781531666666,-36.5451755525,-4.476051310666667
1970-01-01 00:01:09.790393417,-0.7750343078204,9.57543777472,2.3502566162400003,-0.03144635729826087,-0.0933190156604348,0.14156837889043478,23.679204027826092,-36.42098816565217,-4.6674492254782605
1970-01-01 00:01:10.040393417,-0.40798236552384615,8.228032027076923,3.1227024607307694,-0.7600596767608695,-0.6528492229795653,0.8478994414260869,19.63581027260869,-37.93350650956521,-8.21783067878261
1970-01-01 00:01:10.290393417,3.337258212807692,6.693152671230771,4.157817236192307,-0.6841944220208335,-0.36914302626458334,1.3736522420583333,6.636663794541666,-39.24822489375,-18.628699658749998
1970-01-01 00:01:10.540393417,7.243395282120002,5.477146215760001,6.211171801759999,-0.4653630470434782,-0.19113853171269565,1.0979260620869566,-3.464289955395651,-39.30674063652174,-21.785248217826087
1970-01-01 00:01:10.790393417,8.928005271423077,4.250641514615384,7.211875903807693,0.017067782389999994,-0.11641404994875,0.021305790175833356,-12.721782644416665,-34.957336902083334,-24.480398178333335
1970-01-01 00:01:11.040393417,7.1461634764,5.72423439336,5.97707660524,0.6427470005043477,0.010529458887521739,-1.4276291546913042,-8.420231363217392,-37.05381692,-22.13844614478261
1970-01-01 00:01:11.290393417,1.972995212269231,6.724955767076924,3.5722061743461544,0.7706887670217393,0.534531666493913,-1.6751836850434785,8.62575729944348,-40.53629982913043,-14.089514815565217
1970-01-01 00:01:11.540393417,-0.269479998085,8.97909518326923,2.738606960661538,0.5509843894666666,0.16229603361183334,-0.4962093031958333,22.526967922083333,-37.4285812375,-6.149216691708333
1970-01-01 00:01:11.790393417,-0.7568201844040001,9.07550139776,1.9261525450436003,-0.08609339493626089,0.3230320322269565,0.12230026980782609,23.050322490434784,-37.60797633260869,-2.52749772702787
1970-01-01 00:01:12.040393417,-0.5677808321865385,9.423872187615384,1.922118319,-0.12173561587217084,-0.12732238715591668,0.07135801032875,20.791401704583336,-38.99134508791666,-0.6723838647470833
1970-01-01 00:01:12.290393417,-0.2658701969989616,7.747698194,2.8438726747692304,-0.9736180746391304,-0.728727745647826,1.0505729506304349,17.217481364478264,-39.90147980434783,-6.214255871565217
1970-01-01 00:01:12.540393417,4.64834970704,6.56058120124,4.5308260985999995,-0.8556832567521739,-0.5336472897378262,1.3883317734434781,1.1561675279000005,-39.56837960913043,-18.817502104347827
1970-01-01 00:01:12.790393417,7.211259877153846,4.494893206038461,6.555116641615385,-0.43222030251666665,0.15319790722874999,0.9140580221875,-11.008042613166666,-34.638551553333336,-24.969060420416668
1970-01-01 00:01:13.040393417,8.730420996080001,4.3823887756,8.19899011232,0.11424430548260872,-0.0328301471116087,-0.2346325775652174,-14.448149515217388,-31.96198455130435,-26.87352130695652
1970-01-01 00:01:13.290393417,6.19684244596154,5.6628106630769235,6.014032217115385,0.8969635839625001,0.043925047072816664,-1.446560725625,-6.757371067704167,-36.97084252041666,-22.637964804583333
1970-01-01 00:01:13.540393417,1.6435994250884614,7.1195697785384615,3.3126977481153848,0.8425929624043481,0.2912138095526087,-1.4059111450869566,9.153733170565218,-40.9115574052174,-12.988888201826088
1970-01-01 00:01:13.790393417,-0.33299154051720004,8.92275303964,2.4885031311,0.3584729487365217,0.33265224650434777,-0.541015733348261,20.748426436521736,-38.584965416086966,-5.110792719826087
1970-01-01 00:01:14.040393417,-0.7407403916330769,9.299371472846152,2.399176271823077,-0.05926243797791666,-0.04112973529458333,-0.0002704747752916616,22.26637268041667,-38.070645649583334,-2.7128380536666667
1970-01-01 00:01:14.290393417,-0.8304442361615385,9.31967732353846,2.4685051786538463,-0.1780813281221739,0.08749988202086956,0.21472067126521743,22.58508632521739,-37.77827884956521,-3.949175544304348
1970-01-01 00:01:14.540393417,-0.14148577881200003,7.693413464400001,3.24607774656,-0.9216029632458334,-0.5246462660458333,0.8777347368791668,19.32040313875,-38.563176791249994,-8.43631452325
1970-01-01 00:01:14.790393417,4.171738287153846,6.040682566692309,4.455974138692308,-0.9625695840521741,-0.6404094216521738,1.5363110744130437,6.376673822782609,-40.183763420000005,-18.141553796086956
1970-01-01 00:01:15.040393417,7.7512711488,4.59935958244,7.14570243532,-0.3679705249260869,0.017067558895652174,0.9060652902608695,-4.60183234834,-38.69161522826087,-22.284955565217388
1970-01-01 00:01:15.290393417,8.54772107626923,4.432513310269231,8.146353800923077,0.18404414621833332,0.02305428803966667,-0.38458485423720834,-7.8483899435,-37.55426279666666,-23.448767105416668
1970-01-01 00:01:15.540393417,5.622763172923077,5.787812259384615,5.604057840153844,0.8556375892304348,-0.017548393779999994,-1.4592730843043482,1.9862621556565216,-40.63827929260869,-18.52631776217391
1970-01-01 00:01:15.790393417,1.6469711059688001,7.054320465120001,3.291589105200001,0.8511985391791667,0.41373804848708334,-1.3765700260833331,10.208196520333333,-41.80186589541666,-12.914544304916665
1970-01-01 00:01:16.040393417,-0.8125218905061539,9.176977914423079,2.5364581005384617,0.32823602448695655,0.14758052983913045,-0.5216087353995653,13.261907162608694,-41.84319885869565,-10.105007669608696
1970-01-01 00:01:16.290393417,-0.6634894972734616,9.198544605115385,2.5012639793461537,-0.05712228511134783,-0.19874233225521742,0.043853946033043475,13.684128595652176,-41.76472141391304,-9.948676025869565
1970-01-01 00:01:16.540393417,-0.7994036315748002,9.38233333744,2.7107549560399997,-0.20085421174041665,0.051935618582916676,0.20755338917625,12.596662839166667,-41.74739233583333,-11.360264579166667
1970-01-01 00:01:16.790393417,-0.42646316528461536,7.317504325307691,3.285149266115385,-0.9371894079826086,-0.031510296679000016,1.0090761729173914,14.043320489521738,-40.87349352652174,-10.690585012086956
1970-01-01 00:01:17.040393417,4.366477555461539,6.386722588115385,4.7037320005000005,-1.0265112122958333,-0.6952439039000001,1.5392121525,9.103959441666667,-40.68333419166667,-14.71809498375
1970-01-01 00:01:17.290393417,8.10622501832,4.19699630128,7.65401539308,-0.4226949028649565,-0.11583315094130434,0.6802218121782608,-8.374139246652174,-35.93646488956522,-25.655137601304354
1970-01-01 00:01:17.540393417,8.068958975038463,4.6247308995,8.196557094769231,0.30789419846695654,0.07748890465999998,-0.642704159782826,-9.482473083043478,-35.42475824782609,-26.025050204782612
1970-01-01 00:01:17.790393417,4.46828615112,6.20752538468,5.20969438484,0.9999080400208333,0.18401085453916668,-1.4384826370416668,-3.198689699170833,-38.534479776666664,-22.816511393333332
1970-01-01 00:01:18.040393417,1.108041968726923,7.155834749692308,2.9411761005,0.8881582746956521,0.09676431961434784,-1.2738319453826086,5.134280909608696,-41.17614497347826,-17.10133863695652
1970-01-01 00:01:18.290393417,-1.0947484588615386,9.342343650538462,2.6052112813846153,0.03855302626874999,0.31840546755041665,-0.15382287561666666,10.335822423208333,-41.573885122916664,-13.614637255416667
1970-01-01 00:01:18.540393417,-0.4223916321440001,9.564570374,2.5480732544,-0.013419247272260872,-0.14891753386826084,-0.04316686150082609,11.521080390434784,-41.160537886086956,-13.927192523043479
1970-01-01 00:01:18.790393417,-0.8664040727076923,9.35051895726923,2.5788487948076924,-0.14426388284086958,0.02412887062695652,0.11393841400043478,10.996519959565218,-41.13358373217392,-14.428917802173912
1970-01-01 00:01:19.040393417,-0.49320706300884615,7.277186244038461,3.0788839663461536,-0.9745441587791666,-0.7223040194208332,0.9925547988,4.569793204375,-40.129102707083334,-19.025250276250002
1970-01-01 00:01:19.290393417,5.30031593628,6.106982464480001,4.618328137212,-0.9296703676173912,-0.5249231299252174,1.533794501478261,-12.516484758782608,-31.507939629130433,-28.920983936086955
1970-01-01 00:01:19.540393417,8.102684995153847,4.606307672346153,7.7235119511923065,-0.3337615481634583,-0.05427050326854166,0.7860880358108333,-22.648619095416667,-21.084116936666664,-32.504226446249994
1970-01-01 00:01:19.790393417,8.40874592288,4.44086317748,7.5616873900799995,0.40609514226956517,0.08208373173208694,-0.7565081396817392,-14.672730653043482,-31.148660245217396,-27.673474769130433
1970-01-01 00:01:20.040393417,4.482975681,6.391408996615386,5.017473801807692,0.9600727920826088,0.20288128877043474,-1.5604438678695656,-3.8511373274434786,-37.917472176956515,-22.54104896347826
1970-01-01 00:01:20.290393417,0.7679722243014845,6.876256520307692,2.822426886884616,0.9146651774375,0.244885278988375,-1.2826941037208333,12.014992436124999,-40.858350435,-12.320444543708334
1970-01-01 00:01:20.540393417,-1.20291652226,9.76311150544,2.1174367676399997,-0.04819541197043479,0.44185965993913046,-0.05981325801217391,20.476734824782604,-39.28271567347826,-5.338173161391304
1970-01-01 00:01:20.790393417,-0.5492424598330768,9.497329048576923,2.194321500269231,-0.05868210915920833,-0.1591330354925,-0.01672155856952083,21.60549664458333,-38.58246008541666,-5.9536854823750005
1970-01-01 00:01:21.040393417,-0.9314438217884615,9.51953479473077,2.6059366960384613,-0.24539567942565216,-0.06707101694913044,0.18508308875217394,22.19371588347826,-37.95311339086956,-2.333042808217391
1970-01-01 00:01:21.290393417,0.39624400636799995,6.6293002990400005,2.9124156005599997,-1.061613278504348,-0.8980365680782608,1.2190634401000005,16.19849321104348,-39.42079577173913,-9.31514151221739
1970-01-01 00:01:21.540393417,5.577891100423077,6.206560698269232,5.352920467576923,-0.7237729256208333,-0.16739869186062503,1.5344408403333334,-0.9582386017520834,-38.38425318416667,-20.89847016291667
1970-01-01 00:01:21.790393417,8.227830523038463,4.727043140192308,7.390846041076923,-0.3480385292443477,-0.18511625265565218,0.5977918958982609,-12.009727893086955,-33.52764643826087,-25.77877276826086
1970-01-01 00:01:22.040393417,8.41359583756,4.32599804076,7.438170245359999,0.38880054435416667,0.10154959559499999,-0.7705706120441667,-12.308466990458335,-33.53255502375,-25.604874212500004
1970-01-01 00:01:22.290393417,4.390433508038461,6.303317184461538,4.871314280653846,1.0033139041347825,0.27857893575652176,-1.5770756939130435,0.5445239025260872,-39.161979842173906,-19.26499963695652
1970-01-01 00:01:22.540393417,0.6563970154423999,7.0255443054,2.6366590392799996,0.8376113280043478,0.41143545443478263,-1.2959256949565217,16.15401885804348,-39.80196861608696,-8.864542753956522
1970-01-01 00:01:22.790393417,-1.6300065378807693,9.473315524076922,2.4754196460384614,-0.04153308397375,0.07091037597762499,-0.1509954193495833,20.253666719583336,-39.151409467499995,-4.726324498583334
1970-01-01 00:01:23.040393417,-0.6133149895453847,9.608277177653846,2.331551513576923,-0.017098893133478253,-0.09448768944304343,0.1326706646678261,21.921859658695656,-38.185106858695654,-4.1029454936956515
1970-01-01 00:01:23.290393417,-0.8340236389455999,8.993525866719999,2.7179340271200005,-0.557878763755,-0.2025563234572917,0.5104220990175,21.26955660208333,-38.3867907525,-4.034592310541666
1970-01-01 00:01:23.540393417,1.7830574974269235,6.498096753538461,3.7188550626153845,-1.1729216499086956,-0.4228109096217391,1.5688619250869564,10.146547235086958,-39.72134548608695,-15.19711224873913
1970-01-01 00:01:23.790393417,6.922418218807692,5.240913003730771,6.895076998230768,-0.6784037610565217,-0.46232878262521737,1.0335271046652172,-6.304066865308697,-35.963295480869554,-24.438160108695648
1970-01-01 00:01:24.040393417,8.0143640442,3.9543808227599997,7.57849443976,-0.07613612144904165,0.023726476977458336,0.23265852647666665,-12.907979409166666,-31.842090130000003,-27.67894871958333
1970-01-01 00:01:24.290393417,7.301856096730769,5.368585967961538,7.438072832538461,0.6367168672695653,0.20957259914999998,-1.0070686639217392,-9.640840199173914,-34.27120233652173,-25.835504283913043
1970-01-01 00:01:24.540393417,2.976853831461539,6.679646142807693,4.252685341499999,1.0692161743833333,0.30168002906958336,-1.4985631901666665,4.763287147279167,-39.900425115833336,-17.246744870833332
1970-01-01 00:01:24.790393417,-0.10278825071199998,7.783256634640001,2.9853259827600005,0.7170147973608697,0.2613552888078261,-0.8980597244956523,18.69732690826087,-39.14232967217392,-7.162049873782609
1970-01-01 00:01:25.040393417,-0.9716870586,9.42345766519231,2.301774972807692,-0.06548464901399999,-0.20491879868275,-0.02666701151666666,22.691581568333334,-37.64453633583333,-3.8638009429583335
1970-01-01 00:01:25.290393417,-0.487512213144,9.49775531592,2.1210472596,-0.01482819142226087,0.07676791954869565,0.08036757617269565,23.622446973478258,-36.935096243043475,-5.030340567739131
1970-01-01 00:01:25.540393417,-0.8851209200423077,9.241562840423075,2.403753292384615,-0.4554403646534783,-0.04357716265243478,0.47124219552991314,22.85618110304348,-37.37692409913043,-5.176555011565217
1970-01-01 00:01:25.790393417,2.429689741855769,5.836207774307691,3.561877652657692,-1.2459171016791666,-0.7842121933520833,1.6902203560208333,14.047484120458334,-40.30441888125,-11.169762571375003
1970-01-01 00:01:26.040393417,7.21633754884,5.33745670172,6.575759637480001,-0.6302037316869565,-0.1930880906143478,1.1231813793869567,0.7001501996173919,-39.81292973347827,-19.11552715347826
1970-01-01 00:01:26.290393417,8.79630798326923,4.1823661863461545,7.778280751038461,0.011606884781083333,-0.031139066137458333,-0.03674845646291668,-6.1627476215416666,-37.86299959791666,-22.263278485416667
1970-01-01 00:01:26.540393417,6.664055486807692,5.476678496076923,6.740425520730769,0.6484098149347827,0.2520376349132087,-1.4590200108956524,1.7711348741260868,-39.40289240391305,-19.71527841782608
1970-01-01 00:01:26.790393417,1.9758911132760002,6.685960473600001,3.30260020748,1.1873453337521738,0.16374644497995652,-1.5996104893478262,3.1414232876130432,-40.92008806304348,-18.443794209130434
1970-01-01 00:01:27.040393417,-1.0284190838334615,9.001922713346154,2.3137961284615387,0.2976335199333333,0.8132087203291668,-0.7514905120529166,11.066089054875,-41.71631971958333,-13.115537683333331
1970-01-01 00:01:27.290393417,-1.5750995636054617,9.098224375423076,2.0396527510384614,0.05114973109617391,-0.3923727428869565,-0.036906775575130446,13.15633301130435,-41.47922200782609,-12.114457419565218
1970-01-01 00:01:27.540393417,-1.5621215515,9.344378265360001,2.1791085205600003,-0.14262224799916667,-0.14344956609875,0.10778182856045833,11.299424132083336,-41.57121610625,-13.573614359583333
1970-01-01 00:01:27.790393417,-1.0317640510423076,9.076410123423075,2.7773533102307693,-0.5349527170086956,-0.3454507864747826,0.5824245234086957,8.137573387130436,-41.1118245326087,-16.68222245
1970-01-01 00:01:28.040393417,1.6218473510799998,6.257677093479999,3.3754507142,-0.9323961372043479,-0.7413732863130436,1.650454541869565,-5.36212691044913,-36.69240520130435,-24.94184195521739
1970-01-01 00:01:28.290393417,7.082015181153846,5.3302426265,6.074920982999999,-0.6121035472833333,-0.21850551208576666,1.3130415455083335,-13.900951742875,-32.254796982500004,-26.609475929583336
1970-01-01 00:01:28.540393417,8.9648574825,4.577578952461538,7.605839344923077,-0.015654923312308704,0.012817131263782606,0.1440405602647826,-9.58428092621739,-35.819796188695655,-24.4629237973913
1970-01-01 00:01:28.790393417,7.13524817516,5.3479289246,6.35546574096,0.5762591151,0.08931395474083333,-1.2842028215541665,-4.072450876295833,-38.029731115000004,-22.2068672175
1970-01-01 00:01:29.040393417,2.6785069391423075,6.87680345973077,3.803820683423077,0.9689350283043479,0.3584863073695652,-1.6450353186521736,12.465083081173916,-39.99571974217391,-13.50945796026087
1970-01-01 00:01:29.290393417,-0.5944945115076924,8.349677141346154,2.6927676684230772,0.5175391285034783,0.3553864709608696,-0.9777642125043479,23.249693746521736,-37.44170744608696,-5.614996329521738
1970-01-01 00:01:29.540393417,-1.248212329044,9.35533547968,2.23595430908,-0.042042315584625005,0.01839677355079167,0.13045169835970835,21.174451668333333,-38.917764346666665,-5.210415065249999
1970-01-01 00:01:29.790393417,-1.4075345553207694,9.394233820846155,1.924565153769231,-0.05585218900669565,0.04405415357418261,0.2000866973558696,22.83339342826087,-37.866187717826094,-1.6680297436913047
1970-01-01 00:01:30.040393417,-0.45788628209153853,8.856505877846155,2.435400942307692,-0.6114598686958334,-0.6896657024791667,0.5297146874291666,20.88452696875,-38.599587757916666,-4.6431128184583335
1970-01-01 00:01:30.290393417,2.4887605955439995,5.91208775024,4.02324960944,-1.0983282222782607,-0.35431981960869563,1.5573982620869566,9.07666434393913,-39.59291524434782,-16.533181563913043
1970-01-01 00:01:30.540393417,7.114578235384614,6.126246942269232,6.263689974192308,-0.5671925765086957,-0.5360199122217392,1.2311741735869566,-6.571269574304782,-36.540986434347836,-24.345857455652173
1970-01-01 00:01:30.790393417,9.019113886692308,4.115230795038462,6.9776475994230776,-0.030822677848250005,-0.03811471432291667,0.12198572346295833,-10.963189920291667,-35.327071985,-25.959958871666668
1970-01-01 00:01:31.040393417,6.9604476746,5.15941094972,6.708701184119999,0.5153688866173913,0.358550617226087,-1.2355161387130433,-4.880148680055653,-37.57904732739131,-24.258784916086952
1970-01-01 00:01:31.290393417,2.9953231166923078,6.6207493885,4.223185149076923,0.9735921944416667,-0.020469874887958327,-1.468238090375,10.627042451958333,-40.48376178875,-16.2004048025
1970-01-01 00:01:31.540393417,0.31251550527269223,8.116007291269229,2.779817416961538,0.5004139438908696,0.1709697386344348,-1.0572250880478262,21.499763488695656,-38.54769748130435,-8.809743445999999
1970-01-01 00:01:31.790393417,-0.7655739807231999,9.500563476519998,2.579459985408,-0.13173508441721737,-0.10828515903956522,0.03229822851010435,20.90473631130435,-38.900394606086955,-7.975020346434784
1970-01-01 00:01:32.040393417,-0.6150824678726923,9.30047110926923,2.6153267846153843,-0.07029713318458332,0.04514778871208334,0.030897658703333334,21.356039604166668,-38.54786395958333,-8.489928603166666
1970-01-01 00:01:32.290393417,-0.005891748053239999,9.00387235108,3.1927825745199994,-0.3852335020304349,0.04343616634326087,0.6087931681434783,20.22875304826087,-38.71690766652174,-10.158501293695652
1970-01-01 00:01:32.540393417,1.3220104803976924,6.205933157115384,3.5072470269615383,-0.97809770455,-0.12712692027083333,1.5953258622916666,11.31298605675,-40.5521829925,-15.149642109166665
1970-01-01 00:01:32.790393417,6.705864697923076,6.376952520576923,6.626990256615385,-0.6127620170956524,-0.3334789159521739,1.3497330390869564,-1.6742599736452175,-39.51438190565217,-20.530879227826084
1970-01-01 00:01:33.040393417,8.84344795536,3.53549789436,7.2754346558,-0.1560774827013478,-0.0709624102955652,0.08656368858086959,-11.604435381913044,-35.182891016956525,-24.776175458260873
1970-01-01 00:01:33.290393417,7.098388824423077,5.134800972461538,6.789229800923077,0.6022648128333333,0.29993531665833334,-1.2841633694,-9.350001335333333,-35.83566538541667,-23.97684001791667
1970-01-01 00:01:33.540393417,2.7316406777538464,6.8378095480769225,4.146475436769231,1.0158326470652177,0.22317727327608694,-1.6594519562173917,7.229273712221741,-40.44002931043478,-15.699814009565221
1970-01-01 00:01:33.790393417,-1.3040043091372002,8.51125275848,2.8138485718,0.6057457747754167,0.4017521626004583,-0.9402961883375,21.431848763333335,-38.36055342291667,-4.773189207041667
1970-01-01 00:01:34.040393417,-1.023335424503077,9.099600360961539,2.180492565476923,0.03227280792739131,-0.48743699290869563,0.021218810883913062,22.16815260173913,-38.11511263652175,-4.502253967739131
1970-01-01 00:01:34.290393417,-1.5053388625384612,9.290246218192307,2.3625370789230766,-0.11139807624013044,0.02594272171608695,0.13524181739530433,23.839205119565214,-37.12218508521738,-3.4103301712173923
1970-01-01 00:01:34.540393417,-0.8174081909199999,9.44930407092,2.70627626952,-0.27982683883541665,0.07841130105750001,0.5026689022833333,22.292905568333335,-38.025475185000005,-3.9317145347499998
1970-01-01 00:01:34.790393417,1.028563015296154,6.450996621999999,3.304004287730769,-1.1431845815434782,-0.6084182346913045,1.3510437763739127,13.578279080652173,-39.64773509782608,-12.987428623217387
1970-01-01 00:01:35.040393417,5.389559660730769,6.428693002576923,5.9880497096153835,-0.5718513031958333,0.04635264195341666,1.3149438849625,-2.339098890595833,-37.97313197374999,-22.253313065000004
1970-01-01 00:01:35.290393417,7.611449908440001,4.91152642828,8.00450255128,-0.24790791551391303,-0.005168313159130443,0.5441763992660871,-10.816045803391305,-33.97055203043478,-26.186628506521743
1970-01-01 00:01:35.540393417,7.153865767230769,4.639164346538461,7.799409889884616,0.42180291013478266,0.2833137257847826,-0.6678581597043044,-10.022631272521739,-34.3703835526087,-25.909197682173915
1970-01-01 00:01:35.790393417,4.039309827423077,6.333030395423076,5.676956247192308,0.9342524584291668,-0.154040062565,-1.422391091791667,1.5029369195,-39.16549921,-20.008453130416665
1970-01-01 00:01:36.040393417,0.9045689391840002,7.10431051024,2.78943134764,0.9170958995739131,0.12426731778804348,-1.3725016065652174,15.108990213130438,-40.06639182,-10.088234445913042
1970-01-01 00:01:36.290393417,-1.9370123466153848,9.442566006615383,2.2848428755230765,0.04651244391708333,0.21934573500466667,-0.16258744852408333,24.075943232083333,-37.00110642083333,-3.1995762783750004
1970-01-01 00:01:36.540393417,-0.910498915501923,9.583446121461538,2.2347489694615383,-0.023771657489565223,-0.16748340015986954,0.12389798894543479,22.707277297391308,-37.92160382565218,-0.6865391109139913
1970-01-01 00:01:36.790393417,-0.9856523254399999,9.55481665656,2.4044678834,-0.16664682353152174,-0.11403440091913043,0.08180750150660869,21.78794545739131,-38.46087945043479,-0.6571676834139131
1970-01-01 00:01:37.040393417,-0.7195824666884616,7.393528923576923,3.085976908846154,-1.0155740504875,-0.28056217376822495,0.9027411223958334,17.92866873708333,-39.54747263666666,-7.090740045291667
1970-01-01 00:01:37.290393417,4.085966650153846,6.62174539426923,4.904729408846153,-1.0099119258826086,-0.5313382278386956,1.437219412395652,2.937480884986957,-39.20057346521739,-19.427914620000003
1970-01-01 00:01:37.540393417,7.58676324456,4.72940315548,7.883524127200001,-0.5009455541870833,-0.2655952437758333,0.7562709192895833,-5.403790831416667,-37.34258286125,-24.92709112125
1970-01-01 00:01:37.790393417,7.638091506884615,4.9032843370000005,8.360040206923077,0.41878609303347825,0.07117171399173915,-0.5783566081973912,-7.003335040434782,-37.32568077434781,-24.63548312
1970-01-01 00:01:38.040393417,4.382154570423077,6.024527699269229,5.531925148538461,1.0137742472391305,0.14504230836469564,-1.4060435763043477,4.245137960482609,-41.256360758695656,-17.451982621739127
1970-01-01 00:01:38.290393417,1.1582973083112003,7.4046818847199996,2.59867402948,0.9519986262166666,0.08423155460437502,-1.2670097301916667,18.8133505575,-40.40423504583333,-6.357285916958333
1970-01-01 00:01:38.540393417,-0.8584072406813845,9.369592754423078,2.382324776153846,-0.10402601357652172,0.28314497419304346,-0.028639313794995645,21.092923869130434,-38.985855764782606,-3.238663963608695
1970-01-01 00:01:38.790393417,-0.8317223475076923,9.502648754923076,2.2155369978076926,0.09012291598520833,0.024980080177750007,-0.16125185096208333,20.678377865833333,-39.221821785416665,-2.733424743
1970-01-01 00:01:39.040393417,-0.9884125854199999,9.5194422182,2.52087780764,-0.29635699806086957,-0.23179790053869564,0.21408954132521743,19.698749873913044,-39.622473675217385,-3.8506032487391306
1970-01-01 00:01:39.290393417,-0.08943325336807693,6.765060829807693,3.2312613266153845,-1.1314895386695654,-0.4373738843434783,0.9298216966608696,17.003925282608694,-39.82099632565217,-9.355566149217392
1970-01-01 00:01:39.540393417,4.777908518923076,6.728035900307693,5.482481812576922,-0.8323885351333332,-0.5153961883374999,1.4742031942083333,2.890950560583333,-39.516306558749996,-19.168198784583335
1970-01-01 00:01:39.790393417,7.75363623044,4.62328582756,7.54617365116,-0.2954531623013043,-0.2215277277976522,0.6771899837347827,-9.819341493869565,-35.10633734043479,-25.282471117826088
1970-01-01 00:01:40.040393417,8.10076207076923,4.765691616346154,7.782673539423077,0.39782818903166667,0.106737893007875,-0.7361132747495832,-10.959881424416666,-35.213356653333335,-24.639513808333334
1970-01-01 00:01:40.290393417,3.92352698368,6.468971704079999,5.17075735484,0.9323238393260869,0.4284376761217391,-1.5802918569130429,2.5792162522782607,-40.025420811739124,-18.37806743173913
1970-01-01 00:01:40.540393417,0.38349098795961545,6.9570250995,3.082188632653846,0.937034759847826,0.04734306490826087,-1.1913269784869565,12.139869606565219,-41.57201966043478,-13.82618157695652
1970-01-01 00:01:40.790393417,-1.462884838433077,9.635175088653847,2.2199700868807692,0.0019099118629166735,0.36706486294379587,0.05147619631370834,15.96983782375,-41.169157505,-11.095551848333335
1970-01-01 00:01:41.040393417,-0.2883783141824,9.641971416799999,2.41662859496,-0.011829771587391303,-0.25795367068608693,-0.07965795833308695,17.13625435173913,-40.59486837043479,-11.454779334347824
1970-01-01 00:01:41.290393417,-1.2235671175769232,9.518872709884615,2.528495812,-0.20047418090208335,0.10823105346795832,0.08746844739041666,16.319840430833334,-40.68733262916667,-12.294450481250001
1970-01-01 00:01:41.540393417,-0.8202538886384616,8.153274025615383,3.0623088191923076,-0.7932523294608695,-0.38273308249660865,0.8395069020713043,13.538197061217389,-40.07507655999999,-16.506114006521738
1970-01-01 00:01:41.790393417,3.711070788556,6.476288488920001,4.2047980774,-0.8916387829608695,-0.8106420877943477,1.4289332473043477,-2.9791147812608694,-36.05644690434783,-26.917281938695652
1970-01-01 00:01:42.040393417,7.077415131807693,4.816925459615384,6.748491439807693,-0.569846038118875,-0.046348317716212506,0.9827341884124999,-16.0741503625,-27.34354670791667,-32.459582965
1970-01-01 00:01:42.290393417,8.499198902038462,4.941218913115384,8.048244358884615,0.22266518151469566,-0.1130842376173913,-0.3105237697713043,-19.273923749565213,-24.466683760434787,-32.7997051726087
1970-01-01 00:01:42.540393417,5.57682094124,5.8304594970000005,5.93375070184,0.8193761134958333,0.44170324753333334,-1.435259918375,-6.336557706362501,-37.10077190333333,-23.72543764125
1970-01-01 00:01:42.790393417,1.2520194889811536,7.154032727769232,3.438442030615385,1.0620999622347826,0.14481706477326087,-1.3222321426956523,9.073809748739132,-41.02556046130435,-14.41191648330435
1970-01-01 00:01:43.040393417,-0.8401970320230768,9.356281973538461,2.0401248462499995,0.2879587703339131,0.3433336751643478,-0.32263939926956514,19.624893353913045,-39.76254173043478,-5.065486762826087
1970-01-01 00:01:43.290393417,-0.79405076293064,9.147771111920001,2.2875250671200003,-0.03133908721041667,0.002740940541250005,-0.046852911956541676,20.33513379125,-39.45203653958333,-3.2258401315
1970-01-01 00:01:43.540393417,-1.3630021607884613,9.547140849230768,2.266241173384615,-0.18853653514434784,0.044643594431304334,0.17620658340695652,21.83806527173913,-38.23388721652174,0.23879834880347825
1970-01-01 00:01:43.790393417,-0.33854407087230776,6.893724042500001,2.8486915001307693,-1.208426737173913,-0.41642915781739126,1.0462037040608696,17.253399102608693,-39.58632195565217,-6.509827924913044
1970-01-01 00:01:44.040393417,4.8909172852000005,6.636670971679999,5.214670037872,-0.8813294023416667,-0.59519213080375,1.4145810157083332,1.4983328578875,-38.72599538083333,-20.086159427916666
1970-01-01 00:01:44.290393417,7.458303838846153,4.923354140115384,7.720621807461539,-0.3927993050406088,-0.12755037953708695,0.6457955357652174,-10.49709523278261,-33.91533810086957,-25.927003445652176
1970-01-01 00:01:44.540393417,7.5605527496153835,4.9739546849230765,8.062597204307691,0.32019786940125,0.07227686970220833,-0.5869223139470833,-11.454128860083335,-33.36573568833333,-26.271951994166667
1970-01-01 00:01:44.790393417,4.64341596672,6.223350476079999,5.70102066652,0.922099515126087,0.22387254472565218,-1.3971645442695653,-1.080922085412609,-38.48025396652173,-20.750017000869565
1970-01-01 00:01:45.040393417,0.9964950854603847,6.942666496884614,2.9349870475769233,0.9823411080999999,0.1933699085030435,-1.261845070330435,14.113594262043478,-40.077758125652174,-10.436564155304348
1970-01-01 00:01:45.290393417,-1.3821277736000002,9.605122198923077,2.3569582954999997,0.1594879696714583,0.44625984950549996,-0.15637469146458333,22.808741251666664,-37.58210611291667,-1.6625745495208335
1970-01-01 00:01:45.540393417,-1.0504555664179198,9.47588878768,2.15254775388,-0.03826074670565218,-0.1912435645378261,0.029770418354782606,22.20947249086956,-37.99240128913043,-1.4490691475000002
1970-01-01 00:01:45.790393417,-1.223083507861923,8.878239528884617,2.547759598923077,-0.6782079413208333,-0.14261010467875,0.5316364807620416,20.527246872916667,-38.617540041666665,-4.503066817916667
1970-01-01 00:01:46.040393417,2.600663047178077,5.571091778038461,3.833856300961538,-1.2675423181086958,-0.6895953533695652,1.4037478255652174,13.539915954695655,-40.596009296956524,-10.789857719565218
1970-01-01 00:01:46.290393417,6.23170310672,6.1937779724,7.05118897704,-0.5665200559956522,-0.23301242000304348,1.0450907479913045,-0.8431977396530435,-39.47185450086957,-19.927125433913044
1970-01-01 00:01:46.540393417,8.045924183730769,5.2603552656153845,8.535717192384615,0.008112237172083333,-0.1416469178328333,-0.14340143414129167,-9.234936714249999,-36.16241915916667,-25.29407175375
1970-01-01 00:01:46.790393417,5.974335919846154,5.777241932923077,6.411513343230769,0.6968691232434783,0.1269689839658696,-1.271067088130435,-2.1862894556347823,-38.89398939695652,-22.296581516086956
1970-01-01 00:01:47.040393417,1.8408898498239998,7.0545420044,3.44840899652,0.9397608215000001,0.02083731908125,-1.4922542224583333,6.924229820541666,-42.01342582708333,-16.148563980833334
1970-01-01 00:01:47.290393417,-0.5593176621846154,8.958420867884614,2.753800365879615,0.4358869412039131,0.2898288077713043,-0.5261449239086957,13.491353284782608,-42.017128819999996,-11.91993501826087
1970-01-01 00:01:47.540393417,-0.40923169064115394,9.293055760192308,2.3238886026480765,-0.11863725460713041,-0.42218261918434785,0.1736811818789565,13.489978832608694,-42.07521488304348,-11.79296912347826
1970-01-01 00:01:47.790393417,-0.06357579344199998,9.19985679912,2.2489532775880003,-0.006026769500166662,-0.30919370493166665,0.5204212571616667,7.696914315416667,-43.008442560416675,-13.348603010416667
1970-01-01 00:01:48.040393417,0.8401049159165385,7.561721473576923,1.9594195967346155,-0.7053103731713044,-0.4253752966960869,0.43109523533043476,4.352374201273912,-42.66339327043479,-15.738007006086956
1970-01-01 00:01:48.290393417,4.0681133916003835,7.105988405730769,4.160108624961538,-0.6729687427041666,-0.11777416336841667,1.6853967408041666,-9.813232422250001,-36.950644015416664,-24.491247097916666
1970-01-01 00:01:48.540393417,8.025991863999998,5.02375105588,6.098222680680001,-0.25004954685908704,0.041551036193043484,0.9090613644782609,-21.24318297,-28.328714287826095,-28.82880816304348
1970-01-01 00:01:48.790393417,9.2523749715,5.778485500576922,6.697332440923078,0.16325445667826086,-0.15698571527608693,-0.5556646527104347,-24.16217082434782,-26.364330374782615,-28.47076581913043
1970-01-01 00:01:49.040393417,5.363790171730769,6.568490753192307,4.686212662884615,0.585392914725,0.2978572790728334,-1.5007420431666667,-7.9522430098875,-38.00364327375001,-21.249476909166663
1970-01-01 00:01:49.290393417,0.9810359252479999,6.9075776183999995,2.88839954228,0.6268223264956522,0.23513276972260866,-1.3430333215739132,8.378744788826088,-41.402279895217404,-14.137442547826085
1970-01-01 00:01:49.540393417,-0.6874684788792307,9.398684181076923,2.5734600009384616,0.167569216610625,0.04146089366239167,-0.14714315527166666,17.75551466125,-40.06399218208333,-9.240763545166667
1970-01-01 00:01:49.790393417,-0.04658197842307694,9.194416650692308,2.9950294963846154,-0.08716886126130434,-0.17870077702043483,-0.11305251567791302,22.880734318695655,-38.08149006130435,-6.402274795260869
1970-01-01 00:01:50.040393417,-0.45519188513384623,9.302607052115384,2.817665634115385,-0.10782636711704348,0.12614367411925653,0.05341695105799999,22.624404741304346,-38.15785051347826,-6.870907431086955
1970-01-01 00:01:50.290393417,-0.63209954223048,7.898157696559999,3.18331027236,-0.7003580152,-0.17897852886075002,0.8073034935312501,20.248008607916663,-38.757277648333336,-9.63025250075
1970-01-01 00:01:50.540393417,3.1533483476376927,6.937634652923077,4.255068846423077,-0.7719867761,-0.4052231896130435,1.5126607574347823,5.896408370930434,-39.4439554626087,-19.78389735869565
1970-01-01 00:01:50.790393417,7.243546582692308,5.3949023965769225,6.340583918692307,-0.30922913674999997,-0.19423563126416665,0.9239666735166666,-6.189066211375,-37.7163368875,-24.107846895416667
1970-01-01 00:01:51.040393417,8.60628114612,4.83891542356,7.286080517600001,-0.08037924594030434,-0.1864538801079565,-0.1282920593282826,-9.13263362382609,-36.99111606695652,-24.865047621739134
1970-01-01 00:01:51.290393417,6.971590963461538,5.580170974615386,5.979131716192309,0.4511421185494348,0.06526262918832175,-1.0019008957304347,-7.722578297869565,-37.72536601173913,-23.630668225652176
1970-01-01 00:01:51.540393417,3.019019992542307,7.055566335846153,3.9062595837307694,0.7888971293916667,0.289053361015,-1.5330733756666666,5.127860824309792,-41.155245145416664,-16.795711359166663
1970-01-01 00:01:51.790393417,0.046319677785199985,7.79741119992,3.0760612976399995,0.39658063460682613,0.10630807101608694,-0.9929739111769563,19.40553557304348,-39.3237513673913,-10.088855432869565
1970-01-01 00:01:52.040393417,-1.629902907203846,9.456688560884615,2.7484461152307698,-0.12864830369837502,0.058279247955833315,0.044818924212916667,22.608852862500004,-38.442983786666666,-6.768534064333333
1970-01-01 00:01:52.290393417,0.014560106742692303,9.339643495923077,2.986295735230769,0.031235151049043473,-0.035810405133043476,0.07486308342673911,23.134093906086957,-37.66684623260869,-9.07705265552174
1970-01-01 00:01:52.540393417,-0.8146539184039999,9.24636807864,2.974147229,-0.16815346341691306,-0.06227763467869565,0.07512075831073914,22.950015192173915,-37.84052127347827,-8.81028084130435
1970-01-01 00:01:52.790393417,0.06349104665807692,7.526602196307692,3.5916369218461544,-0.914544833682609,-0.1882510052495652,1.0029071569478263,18.25975364043478,-38.90180372260869,-13.186197943913044
1970-01-01 00:01:53.040393417,3.9215163186576922,6.312217906115384,4.892610379692307,-0.6577506164791667,-0.43225541329958334,1.5121964912041665,6.638062715858333,-39.886567910416666,-20.57046421375
1970-01-01 00:01:53.290393417,7.6746245361600005,5.14088547364,7.3591525634799995,-0.41868464560082613,-0.2695241887865218,0.9201936779869565,-6.691608304826086,-37.12545394956521,-25.541718440869566
1970-01-01 00:01:53.540393417,8.692763689461538,4.511738944423078,7.49373976476923,0.24893693999266667,-0.15119840976,-0.5921005932204166,-10.354223767416666,-36.27691793374999,-25.71861020791667
1970-01-01 00:01:53.790393417,5.520997871923077,6.105992906923078,4.954287889884616,0.6467241515434783,-0.02308309211782609,-1.4696796924782607,-1.2981653628630432,-40.170217927826094,-21.414592826086956
1970-01-01 00:01:54.040393417,1.8601398193791598,6.78695844716,3.1728919372800006,0.6553273693478261,0.42527861188608684,-1.4368500528956525,9.843830896521737,-41.00407326826087,-16.39960989695652
1970-01-01 00:01:54.290393417,-1.1292286799346152,9.179372934076923,2.9361327420384615,0.26054515363166664,0.33054993495083335,-0.2755114797641667,21.0710403925,-39.4426730475,-8.542518218791669
1970-01-01 00:01:54.540393417,-0.5689898564076924,9.325918191346153,2.3058683836923075,0.00864911026000001,0.34047922606082615,0.005375211373043477,22.47806316869565,-39.01324214173913,-7.019034696739131
1970-01-01 00:01:54.790393417,-0.8323111999676001,9.3923564944,2.5330624694800004,-0.08666721327916667,0.028344529528749995,0.018201751794041664,21.934068997916665,-39.46792491333333,-5.316830277458333
1970-01-01 00:01:55.040393417,-0.9107695066038464,8.810718401384616,2.464803261423077,-0.6087553095782609,-0.3099428782947826,0.53160200525,20.578257684782606,-39.058377639130434,-4.126416206391305
1970-01-01 00:01:55.290393417,2.4458388519073075,6.188828342192309,4.073087662923076,-1.2035429478347828,-0.9270295182173914,1.3589108145652176,10.239355377826088,-40.26242430304348,-16.111966505652173
1970-01-01 00:01:55.540393417,6.550671807920001,5.7416461852800005,6.3751827393600005,-0.46494140492083336,-0.33044806449291664,1.137393444725,-2.6006476879375,-38.296702384166665,-23.33188660916667
1970-01-01 00:01:55.790393417,8.856776469269231,4.507213739269231,7.7328559817307685,0.06439325911495652,-0.010997709712434786,0.18750775848347825,-10.599864503652174,-35.81390679391305,-25.312369222608687
1970-01-01 00:01:56.040393417,7.077605121384616,5.137109633192308,6.439551191961538,0.4454739248958333,0.05083391281691666,-1.0720419410916666,-5.917288422558333,-38.24754699,-22.95135601375
1970-01-01 00:01:56.290393417,3.44214003306,6.49943635256,4.38473589476,0.8543747067304348,0.20517131507326083,-1.6909617237391303,4.018866995113043,-40.856725443043466,-18.753831117391304
1970-01-01 00:01:56.540393417,-0.03401388314730769,7.860851352346154,2.835046797538462,0.5802889631486956,0.2747550171916522,-0.8548392977217393,18.355508431304344,-40.136885435217394,-10.229714621956521
1970-01-01 00:01:56.790393417,-1.0163403555365385,9.541418134307692,2.2161069665,-0.07549071567875,0.14057305322708333,0.10105856399370833,20.88209947,-39.66408443416666,-7.396753728416667
1970-01-01 00:01:57.040393417,-0.774411602764,9.385398962480002,2.63243781744,-0.060544519195304354,0.07846556105347825,0.007675211229130433,20.82274038869565,-39.72495850347826,-7.2609699083043475
1970-01-01 00:01:57.290393417,-0.15305095969346152,9.14955033526923,2.9742745795,-0.22920854575833335,-0.32708647001791663,0.016466204233166668,21.2403418225,-39.005554677499994,-7.984744886874999
1970-01-01 00:01:57.540393417,-0.2644539114015385,7.533654837923076,3.517172540461538,-0.8154573424413043,-0.19004867371434783,1.1206210423091303,18.518034893913047,-39.328229490000005,-9.721133750173912
1970-01-01 00:01:57.790393417,4.455225695192308,6.4417734937307705,4.968491046615385,-0.6258694678608695,-0.47779585259565216,1.4173758977086957,2.780201953452173,-39.99985753173913,-19.651367020869568
1970-01-01 00:01:58.040393417,7.380611938479999,5.549475805640001,6.92512113656,-0.3189497205116667,-0.11990834757570834,0.8065774701583334,-6.1403529646249995,-38.050993443749995,-24.16318360833333
1970-01-01 00:01:58.290393417,8.562356027461538,4.901275053807693,7.312121288615385,0.2528532429204348,0.03815562999326087,-0.5655189759649566,-8.807251101347827,-37.8401157547826,-23.777850357391305
1970-01-01 00:01:58.540393417,4.779854472192308,6.660071464000001,5.441887383115385,0.6775006850458333,0.2983039654733333,-1.496041958458333,1.0330700874499998,-40.74092388166667,-20.225732564583335
1970-01-01 00:01:58.790393417,0.9756171936156,6.8437683106,3.0909643066,0.7664026566130435,0.1527479833873913,-1.301249983456522,14.53835644847826,-40.92743716086956,-13.295167922086955
1970-01-01 00:01:59.040393417,-1.379646395176923,9.363006450461539,2.825599136346154,0.2381989904826087,0.27070201577217395,-0.08233013035956524,22.403377202173907,-39.216587896086956,-6.622668991826089
1970-01-01 00:01:59.290393417,-0.67738176198,9.22221269446154,2.678345736,-0.010429324464166665,-0.25096743352375,-0.045490393574166656,22.288462399583334,-39.32452154166666,-6.4641212225
1970-01-01 00:01:59.540393417,-0.786841754176,9.46779960932,2.64951430664,-0.12254342566304348,-0.07143786278543478,0.08592116326378262,21.676550573913044,-39.53987221043479,-7.2227355500869574
1970-01-01 00:01:59.790393417,-0.4813183241635268,7.940986633384616,3.170884956923077,-0.7370407519375002,-0.46483861902916673,0.7466714095750001,19.99392000875,-39.81521908458333,-8.172010222833334
1970-01-01 00:02:00.040393417,3.881347926261538,6.406164850115384,4.0696045215,-0.6786653736434782,-0.6049851781782609,1.5758397475652173,12.19091892230435,-41.25448077739131,-13.292537771739129
1970-01-01 00:02:00.290393417,7.52869000864,5.529249865760001,5.93951671144,-0.13923990037999998,0.04637883033130434,1.0321136168956522,2.026020920730435,-41.80260683260869,-16.623782614782606
1970-01-01 00:02:00.540393417,8.807482822115386,5.5189713170769235,6.796437888538462,0.007466291392458339,-0.05583323235458334,-0.015259455230416654,-3.9620209534999997,-41.474168937083334,-17.403180359583335
1970-01-01 00:02:00.790393417,6.96807327846154,5.8048537444230766,5.583256865307693,0.43064555655652176,0.01608632618304348,-1.409651790004348,2.8026225464769565,-42.132957790000006,-15.413875247826084
1970-01-01 00:02:01.040393417,1.9570183594356,6.764606927559999,3.8215231018800004,0.6538279186000001,0.26755959864521733,-1.4758575169130435,19.21136959782609,-39.624686033478255,-8.433810151391304
1970-01-01 00:02:01.290393417,0.15800220195000003,8.324224301923078,3.321408480153846,0.38029429564375006,0.06224820910291667,-0.8341253204935416,30.73732423708334,-32.69228839833333,-3.810874412458333
1970-01-01 00:02:01.540393417,-1.1622004992576924,9.563497220884615,2.3726007666423077,-0.05785729979347826,0.2957801653599999,0.12306809068826086,30.15109783565217,-32.94141868913043,-1.291142831616087
1970-01-01 00:02:01.790393417,-0.6721203186404,9.1595067078,2.62365408336,-0.17807884959120832,-0.23335410580712498,0.1788719352716667,21.764534790416672,-38.55675109166666,-6.791820406916666
