,acc_x,acc_y,acc_z,gyro_x,gyro_y,gyro_z,magnet_x,magnet_y,magnet_z
1970-01-01 00:00:05.014441333,8.075355289115384,4.042591464692308,9.51940237776923,0.12532947616166665,0.04292707785179167,-0.15566140005858334,-12.708450157916667,-33.8943462375,-23.902915477916665
1970-01-01 00:00:05.264441333,5.457117864920001,5.29989082028,6.844576629599999,1.0615274051130434,0.0738213918421739,-1.3094117045304348,-5.179726559170917,-38.241473819565215,-19.459188544347825
1970-01-01 00:00:05.514441333,1.6516595870038462,6.4632941260769226,3.576432002115385,1.3662458840130434,0.00917512683999999,-1.5160186757347829,8.824447715217392,-41.54002164695652,-7.656313834173914
1970-01-01 00:00:05.764441333,-0.16108302612,9.81094603256,2.200705609124,0.17075530334625,0.4346975325371667,-0.19989226633958332,17.500764807083332,-39.61606947666667,1.6033932765216665
1970-01-01 00:00:06.014441333,-1.0150967876384613,9.296245281846153,2.427438653807693,-0.5135143418643477,0.14097665687565217,0.26536866632956524,18.124697726956523,-39.31684029652174,2.249657672321739
1970-01-01 00:00:06.264441333,0.7850814148359998,6.000116693160001,3.82697177128,-1.47906180725,-0.4536946770008334,1.357759714025,9.8594195445,-40.87634165958334,-8.032615065379167
1970-01-01 00:00:06.514441333,5.239784581115384,4.9543339479999995,7.451590875730771,-1.0751923426869565,-0.15636948530413045,1.0469563545652176,-5.337115826917391,-37.28399890478261,-20.993724241739127
1970-01-01 00:00:06.764441333,8.043632794884616,3.3432860623846157,10.291093791384615,0.06287005122621739,-0.12276262907565214,-0.003530698458695643,-11.238254630347827,-32.67439012956521,-26.19300071043478
1970-01-01 00:00:07.014441333,5.4779784851199995,4.30386806036,7.64216603396,1.1927844212833334,0.14335186009366666,-1.2806569412375,-6.366735418916666,-36.847050190833336,-21.65341115
1970-01-01 00:00:07.264441333,1.8556622843076922,6.828580662615385,3.6468375161923072,1.266085487373913,0.08527092449969566,-1.395753772434783,4.295434247060871,-41.119944200000006,-11.49695873173913
1970-01-01 00:00:07.514441333,0.039392083733199995,9.2886760984,2.3089305541800003,0.49356422761291663,0.12987981004866667,-0.39125858308416667,15.204327304583332,-40.434108416250005,-1.0329370896366665
1970-01-01 00:00:07.764441333,-0.8539338508269231,9.3502138225,2.3193461256230767,-0.18254188950173914,0.21221654336373913,0.008277484336521743,15.36521990478261,-40.45669986826088,0.9575140373043479
1970-01-01 00:00:08.014441333,-0.6137716552551999,7.1210457092000015,3.23271353768,-1.3554466080739132,-0.5282830916391305,1.2819907107869564,10.556278437130434,-41.10143893652174,-6.056303812825013
1970-01-01 00:00:08.264441333,5.104339317961538,6.427524279076922,5.204170180153846,-0.6962245100333334,-0.47727375977833336,1.0971466402583332,-2.2869664430775,-39.919040520833335,-16.952347000416665
1970-01-01 00:00:08.514441333,7.029382324119999,4.55696174928,7.936064868240001,-0.3975860868725216,0.10293118921786956,0.3927791918695652,-7.185561885043478,-36.40718161565218,-22.772086103043485
1970-01-01 00:00:08.764441333,7.2040748185,5.413642272884616,8.006504234961538,0.7755129610958332,-0.4201950766125,-0.8189420625583335,-10.567916671291666,-35.90963776916667,-22.018446604999998
1970-01-01 00:00:09.014441333,3.8519628788961544,7.253074845576924,3.623313358076923,0.9454204621434784,-0.6645857687013044,-2.0004002529130434,0.962781989026087,-41.07749657086957,-12.881712292695651
1970-01-01 00:00:09.264441333,1.149124383482,8.133264788880002,1.4481784973280003,0.2653784439404348,-0.30079886848173915,-0.4911735946839131,14.58801675869565,-40.33546945260869,-6.972977451826087
1970-01-01 00:00:09.514441333,-0.046495619584999974,9.344416263346154,2.3926014826953845,0.01597538629,0.5256065279658333,-0.17598331841666667,16.444533506666666,-39.86968151666667,-5.619623223999999
1970-01-01 00:00:09.764441333,0.8037026916476,9.50871253068,1.9793638916400003,-0.1485433654464348,-0.1538765893652174,0.4307259450904348,16.427996470869562,-39.95909417260869,-4.932864520913044
1970-01-01 00:00:10.014441333,2.209071596646154,6.512628074115384,2.302103136442308,-0.5998438367,-0.43594997802791663,1.47035202375,5.367363611870833,-41.44282038958334,-10.729730506208334
1970-01-01 00:00:10.264441333,7.402424578400001,6.58060356448,3.46400057368,-0.12069372592665217,-0.0019172034078260678,1.091053804652174,-9.425963152565219,-39.81540414521739,-14.47467949043478
1970-01-01 00:00:10.514441333,9.342090331000001,7.206757700961537,4.793153739307692,0.13097378935286952,-0.040849610217956515,0.030829131990826104,-15.845538346521739,-37.99399964782609,-14.048822734347825
1970-01-01 00:00:10.764441333,7.351201098679999,6.957609576320001,3.6190601257600004,0.16361461998416668,0.07103450177333333,-1.2115796555916667,-9.574463169333333,-40.21261342458333,-13.037602861249999
1970-01-01 00:00:11.014441333,3.399062382576923,7.2828629010000006,1.9764495674230769,0.5052049043391306,0.1681948169252174,-1.639605475608696,5.1334643363217385,-41.98584681,-9.61318028521739
1970-01-01 00:00:11.264441333,-0.042010715233538456,8.684208403807691,2.2529016054615387,0.12288064874458333,0.24819845031666668,-0.36177186263375,9.286054968791667,-42.18362379041667,-7.386412501333333
1970-01-01 00:00:11.514441333,0.5295627685996,9.168422168,2.5901776978399997,0.10972425228039132,-0.3430930844147827,-0.17721921464130436,10.261461921173913,-41.96500861086956,-7.343212500826087
1970-01-01 00:00:11.764441333,0.006384799668461518,9.484294615346153,1.217107473476923,-0.1206988229725,0.4588162005025416,0.2078924841779167,10.315009275958333,-42.02929766875,-6.864747683208333
1970-01-01 00:00:12.014441333,0.5367657896867999,7.158887017800001,2.67508712774,-1.0738852979826086,0.35687526930869556,1.4786682503352173,4.1624380402000005,-41.722972040869564,-11.398871525652174
1970-01-01 00:00:12.264441333,5.572485034653846,6.7475299777307685,5.617282262923078,-0.46512646065652163,0.10851443502434785,1.1864524198521738,0.13354749255869566,-40.436482968260876,-15.813638314347829
1970-01-01 00:00:12.514441333,7.25831625364,6.58966272596,7.1746881592,0.1400741222930435,-0.0019772545165217393,0.07603583555982606,-4.532942481608695,-39.58448625695652,-17.485498594347824
1970-01-01 00:00:12.764441333,6.024493155769231,6.4445715214615396,5.6378299185,0.5254170174416667,-0.15526315323304166,-1.0137463908166666,-0.3489076694958335,-41.113685925000006,-13.909833987916665
1970-01-01 00:00:13.014441333,2.7299869628892,7.603043389760001,2.8060288330400005,0.8088278978173912,-0.13337589932978258,-1.562340762347826,12.972448597434783,-40.66493191913043,-6.810452347217393
1970-01-01 00:00:13.264441333,-0.2569752326476923,9.032942822038462,1.854810210115385,0.13695311521521736,0.3537466397326088,-0.5137134932530435,16.076049224347827,-40.35312155086957,-2.665357454913044
1970-01-01 00:00:13.514441333,-0.690082274274077,9.218326545538462,2.6790308499230773,-0.05395425671641666,-0.07242853461208333,0.012801739453749997,16.144316037083332,-40.13645934958333,-1.8312140107375001
1970-01-01 00:00:13.764441333,-0.2149709655696,9.009297070319999,2.54407955924,-0.53717341762,0.11187371781782604,0.8673431911869566,16.066622734782612,-39.66059228565217,-2.762063524
1970-01-01 00:00:14.014441333,3.115361956055577,5.891345038730768,3.016440740738461,-1.002492378175,-0.5600805049554167,1.54379912225,1.8478851118683333,-40.521047592083335,-12.672878861000001
1970-01-01 00:00:14.264441333,7.472077734319999,5.945552160640001,6.60341612544,-0.4356185162173914,0.08146074912630434,0.9894499454434783,-11.876812271826086,-36.015106697826084,-19.886706476956522
1970-01-01 00:00:14.514441333,8.984570335615384,4.693743157038462,7.4368004783846136,0.30027417150521746,0.14708497139739132,-0.45283088491478257,-14.398347853913043,-34.38932120347827,-21.26297569217391
1970-01-01 00:00:14.764441333,5.5666001952399995,5.991368884240001,4.8056186646,0.9479009434583333,0.15638552219904164,-1.522146085875,-4.473730107066666,-39.27859068,-15.851075450833335
1970-01-01 00:00:15.014441333,1.0256728715038461,7.315408683153847,2.613835654615384,0.7988059494956523,0.4845723820695651,-1.3409608602826089,9.826091455173913,-41.509845899565214,-7.1464051369999995
1970-01-01 00:00:15.264441333,-0.6786826721275999,9.65194667388,2.3233844970760003,0.05364619770791667,0.20770739223533333,-0.08174607485708331,13.75055027,-41.09468778,-4.367453992291667
1970-01-01 00:00:15.514441333,-0.954058333186154,9.17876842173077,2.5674954810384616,-0.15709944785521737,-0.15605146466106515,-0.003754744555652206,13.963431482608694,-40.948535587391305,-5.008441593347826
1970-01-01 00:00:15.764441333,-0.9672539695961537,9.107614464423078,3.079252430923077,-0.31253400288958333,0.06546926374374999,0.5954666932375,10.604751468166667,-41.69698715166667,-6.569476107791665
1970-01-01 00:00:16.014441333,3.4961776611999995,4.93623704216,3.2424612670800004,-1.4497837268347826,-0.9227981447795652,1.5290477172739132,-3.2300766239956515,-39.342470418260866,-16.723085900913045
1970-01-01 00:00:16.264441333,7.058692527153847,5.8761746628846145,6.933800318769229,-0.5078023556252174,-0.05296395120086957,1.067345186404348,-16.557722257826082,-31.147138346956517,-25.295572860434785
1970-01-01 00:00:16.514441333,8.77050164792,4.418361969,8.02151916504,0.33611414952916663,0.153071602109625,-0.3565539025429167,-19.879241387500002,-28.670364140833332,-26.029442071250003
1970-01-01 00:00:16.764441333,5.92592313326923,5.412922615538461,5.486414020192308,0.9643475439347825,0.1092297518982609,-1.2507215945130437,-11.299651062608696,-35.498907089130434,-22.02559520826087
1970-01-01 00:00:17.014441333,2.0822599181959998,7.53154008192,2.98539783328,0.8671490103125,0.30133962164291667,-1.3000935911083333,5.7244294087625,-41.31248378708333,-12.128975271375
1970-01-01 00:00:17.264441333,-0.14953903198183846,9.093336463153845,2.5773519075384614,0.1568427735452174,0.46918041733347826,-0.2516597081695652,15.881969409999998,-40.39665736478261,-4.902794402608695
1970-01-01 00:00:17.514441333,-0.17980493983846155,9.333558073538462,2.662041179807692,-0.02278657905695652,-0.2632853139282609,-0.11481386235150436,16.83218139086956,-40.18116577956522,-3.5901626504347823
1970-01-01 00:00:17.764441333,0.10924282841596007,8.34329003924,3.2230616089199997,-0.6885921494929166,-0.5311235077062083,1.0252173617625,13.4811393425,-40.7322676975,-7.3441239598333325
1970-01-01 00:00:18.014441333,3.8041315753038463,5.8815807283461545,3.3967537219903843,-0.8200065169782608,-0.13429438274173913,1.6825488054,2.9510244490999993,-40.58079412782608,-13.225629060956521
1970-01-01 00:00:18.264441333,7.452558325160001,4.64581098632,6.53146375124,-0.4916269270083333,0.03278177131708334,0.9892495151249999,-10.983897009541666,-35.45345775249999,-20.85858670875
1970-01-01 00:00:18.514441333,9.606883920076923,3.3054666313846157,7.707535558769232,0.24682775552695652,0.08026512776652173,-0.31561986937739134,-16.364375405217388,-31.355805605217395,-24.025503906086957
1970-01-01 00:00:18.764441333,7.01907775268,4.84268757928,5.47294894408,0.8693808861565218,-0.030038255395217393,-1.287527491117391,-11.82528611895652,-35.11782438956522,-21.41058349565217
1970-01-01 00:00:19.014441333,3.0586990180384612,6.786477831346153,3.4325696270384616,0.6869180065874999,0.2970382811779167,-1.5422325829999999,-3.060602982958333,-39.30366262166667,-16.040970842916664
1970-01-01 00:00:19.264441333,0.6439666336907692,8.46652646,2.920755104653846,0.42432171268652186,0.40570966428565214,-0.6520595169913044,12.691089173478261,-39.90140616086956,-8.287992496043477
1970-01-01 00:00:19.514441333,-0.5110492676156,9.633786437800001,2.42121505744,0.030130278425816667,0.12098831062916665,0.17172360210408336,16.1379862225,-39.58878850958333,-3.5119859377083333
1970-01-01 00:00:19.764441333,0.5824848703215385,7.909315954346154,2.825178856538462,-0.8685775725159566,-0.061711870738739134,1.1074701308391306,11.756035763434785,-40.51459254434782,-6.6902999048260865
1970-01-01 00:00:20.014441333,4.687759753364,6.572346734600001,3.66001495976,-0.8330692286608695,-0.593497109732174,1.6988403822695652,-3.2090491521939133,-39.74111822434782,-15.773951156956521
1970-01-01 00:00:20.264441333,7.742430302615385,4.035630939192308,6.5338262998461545,-0.29291969942375,0.34937138901375,0.7419146262291667,-11.780734260416665,-36.508661588749995,-20.042645930833334
1970-01-01 00:00:20.514441333,9.029558935559999,3.7624679078,7.6373101318,0.28040881228913045,-0.013791377695652172,-0.35586793687565216,-14.084614049565221,-35.19181309608695,-20.992339175217396
1970-01-01 00:00:20.764441333,6.2320135379999995,5.395029056192308,5.428852949923077,0.7009049182041668,0.09459538283583334,-1.3969549387499998,-12.64867306,-36.46131897,-19.73978424
1970-01-01 00:00:21.014441333,2.356198337226923,7.094571762192308,3.3917909651923073,0.7815783866304347,0.09102380518739132,-1.5826184594782609,-12.648673060000002,-36.461318969999994,-19.739784240000002
1970-01-01 00:00:21.264441333,-0.009238787863199968,9.084776111119998,2.93028843388,0.1329895182756522,0.1729344681817392,-0.4311827695529999,-3.1985877091304333,-36.433844193913046,-14.899732630652174
1970-01-01 00:00:21.514441333,0.1297455773033846,9.188492432076924,2.8464231402692306,-0.00841896806541667,-0.32009407966854164,-0.04998779955416666,23.26294255291667,-36.471439520416666,-2.6567545930833334
1970-01-01 00:00:21.764441333,-0.6628935058548001,8.38635847788,3.24343125,-0.59474219091,0.11787739589565219,0.8577074032652174,20.941712835652176,-37.65911798913043,-4.013135495391304
1970-01-01 00:00:22.014441333,3.768805037403846,5.72108563346154,3.9142449012307696,-0.8798009529541667,-0.23086381872825,1.7730994721333333,5.867975652304167,-39.89397541666666,-14.240602016000002
1970-01-01 00:00:22.264441333,7.938645501799999,4.35685786748,6.79085035408,-0.3697294767756522,-0.2765660232930435,1.2728181610739129,-13.295876274130434,-35.171168450434784,-21.697848362608692
1970-01-01 00:00:22.514441333,9.812072613346155,3.045422779769231,7.180245525692308,0.234505503594,0.08878030133947826,-0.34938653710647827,-20.101756797826084,-31.718958228260867,-22.248701093043476
1970-01-01 00:00:22.764441333,7.004700957000001,4.8946945073846155,5.497064948423078,0.7145990356874999,0.17884956936833332,-1.3052503763749999,-20.18046188,-31.67723083,-22.23814201
1970-01-01 00:00:23.014441333,2.6799789551520004,7.0580207702400015,3.5093382934800004,0.8949968607869564,0.5335448021434783,-1.8959628498260865,-20.18046188,-31.677230829999996,-22.238142009999997
1970-01-01 00:00:23.264441333,-0.4459284562226923,8.715585462653845,2.9313024021807688,0.3320853613895833,0.07500050794445833,-0.4182555913141666,-20.18046188,-31.67723083,-22.23814201
1970-01-01 00:00:23.514441333,-0.40830891721600004,9.23854235228,2.76931318356,-0.051850576004956524,-0.3633218218256522,0.030019814953043473,-20.18046188,-31.677230829999996,-22.238142009999997
1970-01-01 00:00:23.764441333,0.19718610323807692,8.076322508538462,2.5634596429230774,-0.6118881146300418,0.06056824482333334,1.0848325192416668,5.840164304833333,-39.05414612958334,-9.906587401666668
1970-01-01 00:00:24.014441333,3.9144079468,5.6298406859600005,4.2270478088,-0.9327495668391306,-0.23218963252304348,1.7380446661739128,-2.7290049018095655,-38.71242407086957,-16.881285544347826
1970-01-01 00:00:24.264441333,7.9093044397692305,4.310154295807693,7.024229577884616,-0.373948657963913,-0.23877046030043472,1.0431209542826085,-16.43315875,-32.21624722695651,-22.590378388260863
1970-01-01 00:00:24.514441333,9.612128783038461,3.1793538841923077,6.946662034115385,0.26105109307583335,-0.04076258117083333,-0.35538712726416666,-19.48576355,-30.15328026,-23.2639637
1970-01-01 00:00:24.764441333,7.54896384892,4.83010773932,5.18036138308,0.7142006055130435,0.10215992278043477,-1.3022035308478264,-19.48576355,-30.153280259999995,-23.263963699999998
1970-01-01 00:00:25.014441333,2.8983651263730765,7.153612447923079,3.355946273807692,0.9294261460375001,0.47159653165275,-1.8139737497083332,-19.48576355,-30.15328026,-23.2639637
1970-01-01 00:00:25.264441333,-0.6257527404800001,8.4308399782,2.5968777649200003,0.2874394425221739,0.3935595566117392,-0.7347182840153392,-19.48576355,-30.153280259999995,-23.263963699999998
1970-01-01 00:00:25.514441333,-0.7405907029500001,9.340115591615385,2.495639137846154,-0.08489193095595651,-0.3081113338973913,0.02419864193352175,-19.48576355,-30.153280259999995,-23.263963699999998
1970-01-01 00:00:25.764441333,-0.51136660764872,9.20616767568,2.7852640136400004,-0.39133600053125,0.04809064566000001,0.8149088925538335,-19.48576355,-30.15328026,-23.2639637
1970-01-01 00:00:26.014441333,2.268641950142692,5.728973077730769,2.9946437600384614,-1.0602338158347824,-0.5974406927130435,1.8156362201739125,-2.5344739582739133,-38.006825074782604,-15.550047584782607
1970-01-01 00:00:26.264441333,7.280542725769231,5.1610943720769225,6.379595102153847,-0.5442337331583333,-0.003975452775416675,1.2320926288458334,-8.375673134958333,-37.94006045583333,-17.900049292083335
1970-01-01 00:00:26.514441333,9.98168697544,3.2299832153200003,7.400304986559999,0.089214158808,-0.050278444510999984,0.10450686441186958,-8.456887244999997,-37.90554427999999,-17.938171389999994
1970-01-01 00:00:26.764441333,7.431688032923076,3.834702617961539,6.202772422307693,0.5222080000130436,0.1520375383443478,-1.0485043913782608,-8.456887244999997,-37.90554427999999,-17.938171389999994
1970-01-01 00:00:27.014441333,5.09134449464,6.556964721599999,4.2907613158,0.8964972173,0.2852379923475001,-1.4911358058750002,-8.456887245,-37.90554428,-17.93817139
1970-01-01 00:00:27.264441333,0.8241860961596152,7.156329873884616,2.5968574993076925,0.7077500275869564,0.5332246040565218,-1.3855588280652171,-8.456887244999997,-37.90554427999999,-17.938171389999994
1970-01-01 00:00:27.514441333,-1.186420825236,9.7967495542,2.61525953976,0.03197094244954166,0.1766283762804167,-0.020123364821666673,-8.456887245,-37.90554428,-17.93817139
1970-01-01 00:00:27.764441333,-0.6492748260584614,9.510950722653847,2.555906119692308,-0.07362472023521739,-0.1276916973373913,0.09800109955826089,-8.456887244999997,-37.90554427999999,-17.938171389999994
1970-01-01 00:00:28.014441333,-0.151824663555,7.930278132500001,3.1805974519615385,-0.8201926662130434,-0.5823542703665218,0.9988737300869563,-8.456887244999997,-37.90554427999999,-17.938171389999994
1970-01-01 00:00:28.264441333,3.5394377013600002,6.282543383639998,4.00133518072,-0.8066591781958333,-0.05576143522250001,1.706873908625,-8.456887245,-37.90554428,-17.93817139
1970-01-01 00:00:28.514441333,7.839912203192308,4.488105398269231,6.505385442846154,-0.2498276466956522,-0.07907635411130434,1.0288601284347827,-8.456887244999997,-37.90554427999999,-17.938171389999994
1970-01-01 00:00:28.764441333,9.56691749284,3.5911880859200007,7.60939019172,0.21732666404624998,0.009190109246666666,-0.25895596077875,-8.456887245,-37.90554428,-17.93817139
1970-01-01 00:00:29.014441333,6.837239579384615,5.1437304805,5.895093014038461,0.5705110042043477,0.06354377321782609,-1.3685247353913044,-8.456887244999997,-37.90554427999999,-17.938171389999994
1970-01-01 00:00:29.264441333,3.01450330804,6.944317217959999,3.6964012939199993,0.9123286034652172,0.44607831601739134,-1.7001531590869567,-8.456887244999997,-37.90554427999999,-17.938171389999994
1970-01-01 00:00:29.514441333,-0.4111949157738461,8.365365671346153,2.785344385038462,0.4434116194066666,0.19224594394166664,-0.8559716387241667,-8.456887245,-37.90554428,-17.93817139
1970-01-01 00:00:29.764441333,-0.940678464481923,9.252426787,2.608562005923077,-0.038145566159652165,-0.06906360020034782,0.06221733516478263,-8.456887244999997,-37.90554427999999,-17.938171389999994
1970-01-01 00:00:30.014441333,-0.849549353002,9.48568441808,2.6404311951199997,-0.20134561618000002,0.18203045896958336,0.389488023343125,-8.456887245,-37.90554428,-17.93817139
1970-01-01 00:00:30.264441333,0.0634334740346154,7.1425988124615385,3.5537426463461537,-1.0954230246826087,-0.4593460022086957,1.2089635716565217,-8.456887244999997,-37.90554427999999,-17.938171389999994
1970-01-01 00:00:30.514441333,5.59281368408,6.057884564320001,4.9873048462,-0.7045417130304348,-0.5150290867704348,1.5881615203478257,-8.456887244999997,-37.90554427999999,-17.938171389999994
1970-01-01 00:00:30.764441333,7.829549138076923,3.686389882076923,7.255239574769231,-0.46312851990125004,0.07817666544904167,0.6192982868875,-8.456887245,-37.90554428,-17.93817139
1970-01-01 00:00:31.014441333,8.75885125976923,3.6262725888461533,7.769552747307691,0.51829680541,0.31272226841047834,-0.6086181625130436,-8.456887244999997,-37.90554427999999,-17.938171389999994
1970-01-01 00:00:31.264441333,5.2104727662000005,5.994230932520001,5.646713598599999,1.1943491845958334,0.3571607400316667,-1.4511837263750003,-4.764155268613292,-38.592210450833335,-16.31946500291667
1970-01-01 00:00:31.514441333,0.5665027208015769,6.704903235846154,2.820123983461538,1.0491249795565216,0.7136330280478261,-1.3553523005826085,10.164923646826086,-40.09897414434783,-5.282659504443479
1970-01-01 00:00:31.764441333,-0.851674932832,9.823022918520001,2.35907028808,0.12017476939347828,0.04583262619782608,-0.07476613331652175,15.963379859999993,-38.80330275999999,0.11482399699999994
1970-01-01 00:00:32.014441333,-0.756647696865769,9.320425767423076,2.281895159230769,-0.09356106701125,-0.20670654746641667,0.1264436792825,15.963379859999998,-38.80330276,0.114823997
1970-01-01 00:00:32.264441333,-0.47052553712000006,7.855466473439999,2.9698481688799996,-1.036905518047826,-0.27946299147434783,0.8774029230999999,15.963379859999993,-38.80330275999999,0.11482399699999994
1970-01-01 00:00:32.514441333,4.33250397323077,5.457265020461539,4.433480529846154,-1.045594466125,-0.6146351513483334,1.6229643747666669,15.963379859999998,-38.80330276,0.114823997
1970-01-01 00:00:32.764441333,7.9942009735384625,4.281362246076923,7.4957663198846145,-0.38269073045695656,0.018713334128869566,1.0521769368086955,15.963379859999993,-38.80330275999999,0.11482399699999994
1970-01-01 00:00:33.014441333,9.00738105468,2.5332061707199998,8.04269712524,0.36990777216666665,0.11985944969641665,-0.42077851156333335,4.081108172916666,-36.56200782125,-7.7799811639583325
1970-01-01 00:00:33.264441333,6.268117306115386,5.285992337692307,6.063187690115385,0.9284472957869564,0.1967087899878261,-1.5091637529565216,-8.465138165565218,-36.84394471478261,-18.09062489304348
1970-01-01 00:00:33.514441333,1.8823715881132,6.8098189087200005,3.5029316160799997,1.0821942246478258,0.5086450369565217,-1.4735259699130439,5.1313374562478264,-40.01052209652174,-11.275138524043477
1970-01-01 00:00:33.764441333,-0.5441645578515385,8.988064992346153,2.5647895695384615,0.3212852002320417,0.10839740698416667,-0.5520485680541667,21.074231067499998,-36.063328741666666,-4.3424079815
1970-01-01 00:00:34.014441333,-0.7308954796715385,9.280775528,2.369963942423077,-0.007324026938208692,0.10221614044695648,0.10520874610652174,24.19109535,-34.34035873000001,-2.9979708190000007
1970-01-01 00:00:34.264441333,-0.9556427306480001,9.40641525912,2.50942362672,-0.4582569507766667,0.4902722585922084,0.6090074144125,24.19109535,-34.34035873,-2.9979708190000003
1970-01-01 00:00:34.514441333,2.1736068843284615,5.3310889435,3.036867493846154,-1.4152735626913042,-0.8590945647326087,1.7614246865652174,24.19109535,-34.34035873000001,-2.9979708190000007
1970-01-01 00:00:34.764441333,6.89718323364,5.696931170599999,6.71147341924,-0.6949683544347827,0.1141378632563913,1.2090388147217392,24.19109535,-34.34035873000001,-2.9979708190000007
1970-01-01 00:00:35.014441333,9.397331226307692,3.020914130499999,7.8694296675,0.003783075907916674,0.023954551674583335,0.11023228768558334,16.21747394291667,-33.814124025000005,-7.473690698375001
1970-01-01 00:00:35.264441333,7.3802227477999995,4.06840171516,6.4637505615199995,0.6020149472086956,0.34411253358695654,-1.1514447616391306,-9.907968862739128,-33.484214284347836,-23.104016179130436
1970-01-01 00:00:35.514441333,3.942622428269231,6.388668541538461,4.202821725807691,1.0594611590375,0.5786693605333334,-1.6574653734166667,5.1460332769625,-37.74319489791667,-15.598197022916665
1970-01-01 00:00:35.764441333,-0.23206933243538463,7.898417463961538,2.9963191222692305,0.6258627306668696,0.49943765049608685,-0.7871956267565218,19.483557950869564,-36.31887552043479,-4.473318960391305
1970-01-01 00:00:36.014441333,-0.587869519008,9.4368978698,2.56128178716,-0.20791674099143478,-0.3960450438487739,0.2769999408556522,23.04512206782608,-34.595023944347844,-2.0126003907391303
1970-01-01 00:00:36.264441333,0.7243840202665385,9.278887146846152,2.852877026999999,-0.061603396785191666,0.19682361768125,0.055369370431920834,22.823868437916662,-34.777330241250006,-2.1642293432499997
1970-01-01 00:00:36.514441333,0.9542835571780001,7.117584905879999,3.38491702884,-0.8894440689030434,0.004936775790434786,1.4496689198521737,17.560326205652167,-39.07953112608697,-5.019741473173913
1970-01-01 00:00:36.764441333,5.009131534269231,6.217643421,4.236150495076922,-0.8045272243583333,-0.13466099197964584,1.5282542581583334,17.54681206,-39.08562469,-5.01980114
1970-01-01 00:00:37.014441333,8.98328715828,4.712117102000001,7.353063226400001,-0.23416368582391306,0.2186186486193478,0.5171329800243478,8.51488519869565,-37.61208475782609,-10.197548162173915
1970-01-01 00:00:37.264441333,8.159624281692308,4.1472238804999995,6.869186606846153,0.3969116988347826,0.3528290209521739,-0.8249103011347825,-8.449142828956521,-35.612385791739136,-21.3770796726087
1970-01-01 00:00:37.514441333,4.512861609884616,6.5218627166153835,4.8498569780769225,0.96129396555,0.5210268100250001,-1.50879580275,3.8181443784987494,-39.308116596249995,-14.69058466020833
1970-01-01 00:00:37.764441333,0.22381457514400002,6.848258972039999,3.21330789188,0.7613757745043478,0.52018202856,-1.4416114506347828,20.958723980000002,-36.36427473043478,-3.570297878699999
1970-01-01 00:00:38.014441333,-1.156489298896154,9.56127491876923,2.918538560115384,-0.12174976749058335,0.057100251449500004,0.14094848239958332,26.732174398750004,-33.02296606958333,0.24706374602916667
1970-01-01 00:00:38.264441333,-0.63073438106144,9.431886291520001,3.09019790036,-0.030840924650521736,0.21800185465478258,0.14348636615534785,26.668136600000004,-33.075134280000015,0.2379505634
1970-01-01 00:00:38.514441333,0.21115321231384615,8.27670389026923,3.4414012615,-0.15795936331713045,-0.04020829838608696,1.2106622923826087,19.293183867565215,-36.62767344130435,-0.8373562771217391
1970-01-01 00:00:38.764441333,4.193235890365385,6.1582054842692315,2.1328742804884615,-0.49005257451291667,-0.3848422751078333,2.5768329452083334,-6.809282979824999,-40.6723562875,-4.493225196958334
1970-01-01 00:00:39.014441333,9.902076525200002,4.9984356994,3.70827460336,-0.2345005788847826,0.20809073049782603,0.4784794897147826,-23.38989382130434,-34.51409962000001,-8.116594584086956
1970-01-01 00:00:39.264441333,10.490174033115384,4.89225342976923,4.6916647867692305,-0.14123710260697084,0.14051510015841667,-0.055435734495416666,-23.79626274,-34.17573929,-8.42420578
1970-01-01 00:00:39.514441333,7.164191986159999,5.01738629156,3.3799294006,0.19142559591869565,0.20909989965391299,-1.9411933266521741,-23.796262739999996,-34.17573929000001,-8.424205779999998
1970-01-01 00:00:39.764441333,2.888750504692307,6.2968460257692325,2.7159406339230765,0.4362647676013044,0.20529815858382605,-1.4890964666652173,-23.796262739999996,-34.17573929000001,-8.424205779999998
1970-01-01 00:00:40.014441333,1.364430651852,9.51677177068,2.86588635864,0.048139311569166655,0.13123709305125,-0.06514782117241667,-23.79626274,-34.17573929,-8.42420578
1970-01-01 00:00:40.264441333,1.8148721078846153,9.127079755384615,2.3385753689615387,0.034010517092608696,0.2180803838831739,0.2343635806847826,-23.796262739999996,-34.17573929000001,-8.424205779999998
1970-01-01 00:00:40.514441333,2.499600131692308,8.7552184295,2.152028679423077,0.013380634894041668,0.434972746925,0.8994415588666668,-23.79626274,-34.17573929,-8.42420578
1970-01-01 00:00:40.764441333,4.9417455872,7.512308074960001,2.7121919677200004,-0.25984944694565215,0.28240794315652173,1.292749218404348,-23.796262739999996,-34.17573929000001,-8.424205779999998
1970-01-01 00:00:41.014441333,7.718192244269231,6.055795370192308,2.8939953671538463,-0.04620566899173914,0.07962906238713043,0.7249598606826086,-17.341510563478263,-37.737925823043476,-8.467265004478259
1970-01-01 00:00:41.264441333,8.021393426560001,5.4481904296799994,3.0119106994400004,-0.12761358055708333,0.15320570115749998,0.003186024563458331,-16.75598335,-38.09941483,-8.53710556
1970-01-01 00:00:41.514441333,7.40468073326923,6.098963294461539,3.056384600153846,0.03651529003947827,0.25620676676617393,-0.8454787070478261,-16.755983350000005,-38.09941483,-8.537105559999997
1970-01-01 00:00:41.764441333,4.722189771153846,7.347102391230769,2.441025783846154,0.2387276865575417,0.04833697282958333,-1.7377856025833331,-16.75598335,-38.09941483,-8.53710556
1970-01-01 00:00:42.014441333,0.8484057312519999,9.11147459108,2.13880034188,0.12538552408913045,0.02492171386656521,-0.9291889946317392,-16.755983350000005,-38.09941483,-8.537105559999997
1970-01-01 00:00:42.264441333,-0.07345686105842691,9.593970389730769,1.6717409044999998,0.04437512076100001,0.14818405229999998,-0.024532790759304347,-16.755983350000005,-38.09941483,-8.537105559999997
1970-01-01 00:00:42.514441333,0.19152971190320003,9.505437341239999,1.9866387634399996,-0.07140027844220832,0.12749417272974164,0.12215758841283332,-13.915371236833332,-38.44286108416667,-8.704298615250002
1970-01-01 00:00:42.764441333,0.8397191796076922,9.30406939580769,1.925457528923077,-0.03675809034113043,0.3856122247604348,0.850704149043478,-0.672626201273913,-40.9283679473913,-11.099084190869565
1970-01-01 00:00:43.014441333,2.6388970008076926,8.428747329769232,1.8062477347307693,-0.13995472213083332,0.42818235294583334,0.9804628516583334,-7.802500605708332,-40.08799378083334,-11.661662025416666
1970-01-01 00:00:43.264441333,4.8803791992,7.822379278599999,2.6481192078,-0.2395449024826087,0.29727835144347825,0.9694058065826087,-8.620696067999999,-39.919487,-11.718746189999997
1970-01-01 00:00:43.514441333,7.202756406307691,7.0211033865,3.013942090423077,0.030675805332083333,0.18472903811833333,0.4175875512904166,-8.620696067999999,-39.919487,-11.71874619
1970-01-01 00:00:43.764441333,6.93730579832,6.80112498784,2.9529572937599995,0.006020977445652174,0.13618759358391305,-0.16795859858695653,-8.620696067999999,-39.919487,-11.718746189999997
1970-01-01 00:00:44.014441333,5.685793638923077,7.59310428923077,2.425435128,0.2525802028743478,0.275221782733913,-1.174150684521739,-8.620696067999999,-39.919487,-11.718746189999997
1970-01-01 00:00:44.264441333,2.12923822642,8.45051506332,1.86621718132,0.19817332093166665,-0.014574244927916655,-1.3978152225583333,-8.620696067999999,-39.919487,-11.71874619
1970-01-01 00:00:44.514441333,-0.053905211225769224,9.45541044976923,2.1782875355,-0.1605281537080435,0.07701655161565216,-0.14684809777565216,-8.620696067999999,-39.919487,-11.718746189999997
1970-01-01 00:00:44.764441333,0.2101572066101154,9.434747648961539,2.104951576807692,-0.0262994047955,0.12652979379933335,0.041218026994,-8.620696067999999,-39.919487,-11.71874619
1970-01-01 00:00:45.014441333,0.17608782348591998,9.60523780516,2.19328104868,0.054538526629130446,0.3194091025260869,0.5411435888034782,-8.620696067999999,-39.919487,-11.718746189999997
1970-01-01 00:00:45.264441333,1.8610395637342307,8.435725127,2.2467931542307693,-0.2567138508369565,0.33902913721173916,1.264107691247826,-8.620696067999999,-39.919487,-11.718746189999997
1970-01-01 00:00:45.514441333,4.86916452024,7.851412902880001,2.8577732300400003,-0.23476699478120833,0.2921821394470833,0.8794066955375,-8.620696067999999,-39.919487,-11.71874619
1970-01-01 00:00:45.764441333,6.536664628230769,7.269281528192308,3.068762705884616,-0.044540007482739126,0.06723883522404348,0.20676485963504349,-8.620696067999999,-39.919487,-11.718746189999997
1970-01-01 00:00:46.014441333,6.740068570538461,7.301407030615385,2.726378543576923,0.13785069294029165,0.010601620870833335,-0.3408085349175,-8.620696067999999,-39.919487,-11.71874619
1970-01-01 00:00:46.264441333,4.1088176696400005,8.0795684508,2.10220444328,0.1566546087038261,-0.23829349981130438,-1.2683995106478259,-8.620696067999999,-39.919487,-11.718746189999997
1970-01-01 00:00:46.514441333,1.7276726707346153,8.917267984153845,1.761467778269231,-0.09767711974795654,-0.06619704352826086,-0.6588505701043478,-8.620696067999999,-39.919487,-11.718746189999997
1970-01-01 00:00:46.764441333,1.0374685730439999,9.407259503159999,1.8878202576,-0.0259168068455,0.19999110430337916,0.001946617475125002,-8.620696067999999,-39.919487,-11.71874619
1970-01-01 00:00:47.014441333,1.227320850076923,9.499752854653845,1.8164783829999998,0.009783205794521741,0.2654055175652174,0.07765849854473914,-8.620696067999999,-39.919487,-11.718746189999997
1970-01-01 00:00:47.264441333,1.3958054076720001,8.878061975080001,1.9552819702,-0.18119806688208331,0.5002369359166666,0.9647789671666668,-8.620696067999999,-39.919487,-11.71874619
1970-01-01 00:00:47.514441333,4.045711898807692,8.254354212884614,2.7468340829615383,-0.3596797871369566,0.39100867477826085,0.9686945935739131,-8.620696067999999,-39.919487,-11.718746189999997
1970-01-01 00:00:47.764441333,6.007422884461539,7.185651591384614,3.5604095517307686,-0.05367553599043477,0.450118278866652,0.3175367622034782,-8.620696067999999,-39.919487,-11.718746189999997
1970-01-01 00:00:48.014441333,5.82041239016,7.481472198520001,3.50614693,0.04832845436169583,0.12652364389766668,0.03414638956683333,-8.620696067999999,-39.919487,-11.71874619
1970-01-01 00:00:48.264441333,5.767109157923077,7.582533962461539,3.3361873627692313,0.26395438254565223,0.01895241155434783,-0.6038732194143479,-8.620696067999999,-39.919487,-11.718746189999997
1970-01-01 00:00:48.514441333,2.7181495789600003,8.45554460436,2.5093398009199994,0.20576123706804164,0.298326573040125,-1.219662010725,-8.620696067999999,-39.919487,-11.71874619
1970-01-01 00:00:48.764441333,0.589036630515,9.276935436538462,2.396332186192308,0.0031862207495652194,0.12856162874565216,-0.41725125300130433,-8.620696067999999,-39.919487,-11.718746189999997
1970-01-01 00:00:49.014441333,-0.023927166274192304,9.256980778615384,2.313663711576923,-0.06324395145956521,0.17731024949652174,-0.014756075056043481,-8.620696067999999,-39.919487,-11.718746189999997
1970-01-01 00:00:49.264441333,0.034907409663599995,9.6072675842,2.24167840572,0.08740357559883333,0.07269225503110416,0.7790445896341667,18.411276420416666,-38.85058975208333,-4.22568712625
1970-01-01 00:00:49.514441333,2.569579608588462,6.508885856038462,2.804919063813078,-0.8716500575782608,-0.13926020200173914,2.2760391494347827,2.661024674426088,-41.86853209782608,-7.121834070478263
1970-01-01 00:00:49.764441333,8.3599414122,4.19293075556,3.7084302794800004,-0.4037890030554167,0.3312926713029167,1.459386852925,-17.371934214666666,-36.06049569541667,-15.721714337916666
1970-01-01 00:00:50.014441333,10.473518283961537,2.791890387961539,5.509684858961539,0.1315643014059826,0.3273722335086957,0.30657929122282607,-23.584414026521745,-31.04768155869565,-18.658308028695654
1970-01-01 00:00:50.264441333,8.984259443807693,2.8565501579230768,4.810920639192307,0.39350442004347824,0.379528755721739,-0.872936680252174,-20.096679024347825,-33.542239646521736,-18.189567897391306
1970-01-01 00:00:50.514441333,6.24944421388,5.773284393279999,3.9803368469199993,0.6631380617666666,0.43744026001666664,-1.68156904975,-8.684924443875,-39.19345029291666,-14.65841619083333
1970-01-01 00:00:50.764441333,1.5088680619384611,7.413368436423078,2.5134693674615387,0.532509291947826,0.49396408899130434,-1.866011326778261,8.904301062156522,-40.16903653391304,-8.453142870869566
1970-01-01 00:00:51.014441333,-1.565785931408,9.4328383116,3.4162498718400003,-0.03229262323083334,0.18384276217770834,-0.06306417971046667,19.1618347175,-37.99754953416667,-3.217226823083333
1970-01-01 00:00:51.264441333,-0.24757938678384614,9.738575451307693,2.652127180692308,0.36006398304434784,-0.3709049302652174,0.7249868472104349,20.51037125,-37.77320165217391,-2.4704049152608696
1970-01-01 00:00:51.514441333,2.104767114228,8.22310795892,1.72803652956,-0.12797346929030437,0.07869844219173913,1.6140263805913038,9.372014709304347,-41.83158658826087,-0.24831983318086956
1970-01-01 00:00:51.764441333,5.881857076807693,5.90827137876923,2.0057540130384615,-0.19175499654208336,0.18091288856966667,1.5346470675125001,-8.712147235854168,-41.66406170416667,-4.592967708791666
1970-01-01 00:00:52.014441333,8.887094192423076,5.1883952919615375,2.6424262002692305,-0.034979895935217394,0.18600100576560868,0.3834909923156523,-19.47318035608696,-38.15917106304348,-4.465441289130435
1970-01-01 00:00:52.264441333,9.89439450104,5.49904268196,2.70818031008,0.02110634432791667,0.2892553914966666,-0.01391997010359917,-21.241378147916667,-37.03596337666667,-5.9511479537083325
1970-01-01 00:00:52.514441333,7.68347597576923,5.369173208269232,2.7204600817692306,0.02137698972713043,0.3696043851,-0.8994732551000001,-16.883875638695653,-38.944882766086955,-6.832861527130434
1970-01-01 00:00:52.764441333,4.8348678406,6.416041772480001,2.8280270874799998,0.018927547220217392,0.22523333896073913,-1.2366202369304349,-5.0403766838608695,-41.919764478260866,-7.773365145130436
1970-01-01 00:00:53.014441333,2.7326078972307695,8.628886906346153,2.970693564807692,-0.08558651322308335,-0.10391845692916667,-0.826600935325,6.5480270782083325,-41.777123132916664,-7.8399723767083325
1970-01-01 00:00:53.264441333,2.0458475611538463,8.930049098153848,3.0168782923461537,-0.0173762723066087,0.1580287957980739,0.051569464610826087,10.752982927826087,-40.88652635652174,-8.428935133913045
1970-01-01 00:00:53.514441333,1.82823217156,8.75168278204,3.0643556396000005,0.06662679743875001,0.40507737190375,0.6420614032708334,9.144209405833333,-41.38699595125,-7.659911155666666
1970-01-01 00:00:53.764441333,4.606468875576923,7.593967877923077,2.8213848231923078,-0.0036967376677434806,0.27811612310608697,1.2035320037521742,-2.4132275581173914,-42.33266382652175,-6.873625838173913
1970-01-01 00:00:54.014441333,6.90162000736,6.32799486696,3.1334878784399995,-0.11351336160686958,0.1745927877898261,0.9116133244043476,-10.794288199434783,-41.00299155304348,-7.2861422663478255
1970-01-01 00:00:54.264441333,7.762465562115385,5.480207695730769,3.134907848653846,-0.014244380560833334,0.21680898095354162,0.22901903240416666,-12.899171948333333,-40.1349552475,-8.092191179624999
1970-01-01 00:00:54.514441333,8.297274574923078,5.7362099515,3.4699630209615386,0.1528501661508696,0.26056593819086965,-0.6503877061756522,-14.32676862652174,-39.01556827652173,-8.932565937913045
1970-01-01 00:00:54.764441333,4.89982675788,7.20269791268,2.80429843148,0.06825463635458333,0.39922967304583334,-1.6869944284166667,-7.89539293425,-40.51525942458333,-9.04860067375
1970-01-01 00:00:55.014441333,1.566233385480769,8.435563923692307,3.3965061597692308,-0.001328706213869563,0.2931056469695652,-0.7965225370782609,8.705922489269565,-41.66840876695652,-7.625103452826086
1970-01-01 00:00:55.264441333,0.181907720942,9.1069001038,3.44379858392,0.07685143561483333,0.16452605312420834,-0.10562530400791666,14.9987258925,-40.20077800833334,-6.705032825541667
1970-01-01 00:00:55.514441333,0.3239954787015385,9.110176444384615,3.409494535038461,0.06661348026565218,0.041829651219782604,0.7713886883730869,16.255990691739132,-39.061032999999995,-6.662430638869563
1970-01-01 00:00:55.764441333,3.6045504526307686,7.558491651153847,2.8248679645,-0.12976436268130434,0.14376882706608693,1.8779268627391303,7.3419351371304336,-41.684788247826084,-6.19774980121739
1970-01-01 00:00:56.014441333,6.85486922604,5.511808136,3.2949541076400006,-0.261453340605,0.21601135385833334,0.7236191257416668,-5.125356555608334,-41.3417722375,-7.928317507124999
1970-01-01 00:00:56.264441333,8.180926138115385,5.863957760153847,3.7387521479615384,-0.04914568485347826,0.10474531609152173,0.23189526185217388,-12.874966331304348,-39.51711522,-10.09898662595652
1970-01-01 00:00:56.514441333,8.48679362184,5.1944261352000005,3.78408894648,0.15099433204125,0.25684052580458333,-0.06848736549599999,-13.688761114583334,-39.148632685416665,-10.46827129525
1970-01-01 00:00:56.764441333,6.272757656346154,6.07225537226923,3.0611400955769237,0.24406768495260875,0.4102180546665218,-1.591862009921739,-8.525468246521738,-41.017468826086954,-8.604735830608698
1970-01-01 00:00:57.014441333,2.37300331432,8.11252990724,3.0846474426399997,0.06714399823086958,0.4209118974604347,-1.4387945170652172,0.3169716337552175,-42.10165471565218,-7.97525994673913
1970-01-01 00:00:57.264441333,0.15390303393692306,9.390739165038461,3.6061164268846153,0.1392018608125,0.05201722286833333,-0.19660666663791668,14.326247731708335,-40.34147326208333,-6.459295511291667
1970-01-01 00:00:57.514441333,0.10958941533115386,9.010115291961538,3.1287418248846146,0.07031229274891306,0.07737900591695653,0.0077925512630869585,15.586233677826089,-40.317343173478264,-5.590446140608696
1970-01-01 00:00:57.764441333,0.6372608093284,9.22074735716,2.98894844972,0.02202845414174583,0.19581664912429164,1.0531481472220834,16.825960279166665,-39.57519324625,-5.027776559208333
1970-01-01 00:00:58.014441333,3.8915037301923077,7.075192829961538,3.059769868153847,-0.47198612080434776,0.04175113886999999,1.6053579319782607,6.54358042826087,-42.33872637521739,-5.780167123521738
1970-01-01 00:00:58.264441333,7.29465468744,6.462768603560001,3.9341069824399995,-0.07776122556869565,0.22583120295565223,0.44095638848260876,0.688172464771739,-42.69503950043478,-7.353443062913041
1970-01-01 00:00:58.514441333,7.019324393615384,6.145620117115384,3.999993509192308,-0.0013774297670791635,0.165064171991375,0.08245991624583333,-1.2068700989,-42.698177655416664,-7.302244663250001
1970-01-01 00:00:58.764441333,6.792902931730769,6.633921995884616,3.788989985538462,0.5079588183869564,0.3932457791025218,-1.0809443553913045,3.452101168341304,-42.77596133608695,-4.766979798086957
1970-01-01 00:00:59.014441333,2.723316833472,8.577301410039999,3.0075218262000005,0.15623556392458332,0.03422511931445833,-1.6632280803708335,20.483216047916667,-37.699588775833334,-0.6193817456706666
1970-01-01 00:00:59.264441333,0.18295416024846153,8.3161986835,2.600927881269231,0.026894712645069558,0.12972912475565215,-0.25987792517791736,27.927623582608692,-33.121446193913044,0.5291530775026086
1970-01-01 00:00:59.514441333,-0.15070061645608,9.623781243960002,3.25424476324,0.005204458760204348,0.18483019409695653,-0.16263597049434783,28.99515052565217,-31.879358042608693,1.3680787709130433
1970-01-01 00:00:59.764441333,-0.10995212262038462,9.711671782269232,3.029555775576923,0.05486523147145833,0.07991220593562501,0.5064093684604166,13.638256350416668,-40.3798165325,-1.3797504504681248
1970-01-01 00:01:00.014441333,1.8428984421884615,8.371819557692307,3.0409033320384613,-0.3884567061086957,0.44298231892956513,1.637579959304348,-0.9547543006769564,-42.49443833608696,-1.1873904103508695
1970-01-01 00:01:00.264441333,5.14733406372,5.5986395690799995,4.283612182600001,-0.44357403757916664,0.081416561061275,1.2187979801454165,-3.3465633790500005,-41.609973430833335,-10.06928404175
1970-01-01 00:01:00.514441333,7.609074924153846,5.910631854653847,4.4874317991153845,-0.08367807767104347,-0.021006925195130442,-0.016296926421173905,-6.831133427826087,-41.17020830826087,-10.830796034782608
1970-01-01 00:01:00.764441333,7.66794243156,5.98515380864,4.5535308838,0.2048463510382609,0.14421179421552174,0.1903641543030435,-7.755038053999999,-41.26502194521739,-9.793555798869566
1970-01-01 00:01:01.014441333,5.677958010192308,6.730684239269231,3.8317664161538465,0.4301016010120833,0.12391625312749999,-2.051617323675,0.3135083520333331,-42.03224849708334,-6.624389131958334
1970-01-01 00:01:01.264441333,1.3799054718153845,8.700553260307691,2.8782607796923076,0.19230091272260874,-0.19133203616073913,-1.1791464298391303,19.04081572652174,-38.34504600217391,-4.319685645652173
1970-01-01 00:01:01.514441333,-0.1468625976498,8.66903664548,2.99802557368,-0.1036665860375625,0.20090313618142916,-0.175334042870625,18.008600393333335,-38.670264245,-8.095453421250001
1970-01-01 00:01:01.764441333,-0.4559460860038462,9.396254618730769,3.2706985474230765,0.03453608748724783,0.16358131669904352,0.01955348709895652,18.765148660869563,-38.43330283782608,-7.480744735086956
1970-01-01 00:01:02.014441333,-0.00801732786936399,9.375477594080001,3.4025802978799997,-0.010770252665217387,0.06986423351973912,0.9459072390173913,18.283463022608693,-38.36597110913043,-7.8367015589565225
1970-01-01 00:01:02.264441333,2.9951216126884614,7.209976008384616,2.9366508953846155,-0.11347038245541667,0.5287135003608333,2.0847652404583332,12.153615037416666,-40.337114175416666,-8.353388667083333
1970-01-01 00:01:02.514441333,7.1572798214999995,5.248408954307692,4.036356353653846,-0.20946120794304351,0.017981431825282616,1.3033858485913046,2.4695870772922173,-42.18044562956521,-8.162471812652173
1970-01-01 00:01:02.764441333,9.0183502442,4.22073693236,3.8544725831600006,-0.027201599755416663,0.04085433324275,0.2411151906375,-15.309471844958333,-32.27052855625,-21.394201120125
1970-01-01 00:01:03.014441333,9.418581267192309,3.4917830305,4.1680018263461545,0.0018020515500869571,0.1335594916938739,0.08547618807713045,-18.137604340000003,-29.712665059565214,-22.67620169695652
1970-01-01 00:01:03.264441333,6.6488496460399995,4.495134320119999,3.70025128784,0.3807831934678261,0.6309023006869565,-1.7340044405913044,-13.127282599217391,-31.205451135652183,-23.39193402173913
1970-01-01 00:01:03.514441333,2.931509663500001,7.662433195846154,3.235504426192308,0.17126344299416665,0.07686786244916667,-2.1845124985125004,6.8469767970875,-34.667016188750004,-20.4697567625
1970-01-01 00:01:03.764441333,-0.1448526235742308,9.51024257946154,4.186643829346154,0.06671633599956522,0.2905641897769565,-0.11264401828086953,17.45570095652174,-32.392361019565215,-18.726822562608696
1970-01-01 00:01:04.014441333,-0.1921943298276,9.1746312562,3.6355378601199995,0.15103112306393332,-0.009741344335625,0.24670599773566662,18.0148781125,-32.7385861075,-17.57368334125
1970-01-01 00:01:04.264441333,1.7422442921069998,7.18387835573077,2.603766209576923,0.04169179407852174,-0.08893283249235216,2.2413492876956522,6.054762114782609,-37.361023778695646,-15.406829502173915
1970-01-01 00:01:04.514441333,7.522205493039999,5.1662607056,2.8891659484320003,-0.4797387168347827,0.13993483329943476,1.7555756957478257,-13.65036309295652,-33.95985138869566,-18.447502301739128
1970-01-01 00:01:04.764441333,9.566686741846153,3.4235480028846155,4.329107190692308,-0.23763529955833332,0.33696365201958334,0.6694077749958334,-20.940794865,-27.286536294583332,-22.768075387499994
1970-01-01 00:01:05.014441333,10.024077900115383,2.0864132044615387,4.885281389692308,0.12336595796834783,0.33255543009565225,-0.3927390019026088,-20.816072879130434,-25.309484897391304,-25.086874423043483
1970-01-01 00:01:05.264441333,7.430979199279999,4.38273006588,4.53317920528,0.7127114335750001,0.6566702562,-1.7921219120416667,-9.711504776938332,-31.685536941250003,-23.911381164999998
1970-01-01 00:01:05.514441333,2.769690399157693,7.600254804076922,3.0096414185,0.8591247822999999,0.45408146796260873,-2.106386127782609,11.573583250478261,-35.212984830869566,-16.925141665217392
1970-01-01 00:01:05.764441333,-1.4522859557827998,8.99496886584,3.2775722534400002,0.28449649893434786,-0.00895552336956521,-0.7748979984013044,24.328781293043477,-31.553438933043477,-9.473389791260873
1970-01-01 00:01:06.014441333,-1.213687661969231,9.133412739538462,2.5669255124230768,-0.112648404689125,-0.14050990800916666,0.28784313705125,19.216173886666667,-34.134177684583335,-10.035348812708333
1970-01-01 00:01:06.264441333,-0.5041976693346155,9.361762883,2.5095026163846152,0.1612693037402243,-0.35653941620773916,0.48470428162913043,16.692747033478263,-35.55346430913044,-9.578162483652173
1970-01-01 00:01:06.514441333,0.6384523314932561,7.646429168519998,2.9387009399600004,-0.5908933704041667,0.025574031358333332,1.2191153491916666,9.228795081,-37.296554725,-12.249413687999999
1970-01-01 00:01:06.764441333,5.474415893576922,6.562342001153847,2.921538091769231,-0.43030087518195653,-0.3777769338682609,1.961058450782609,-8.247445698747825,-35.0370932873913,-17.574762800000002
1970-01-01 00:01:07.014441333,8.86824838272,5.18283424068,4.65992962648,-0.23949326684204347,0.36703695291739125,0.5674469826913042,-16.927457643478263,-30.660454378260866,-20.891342909565218
1970-01-01 00:01:07.264441333,9.242155838384615,4.761229741038462,5.520525776807693,0.23797774691041665,0.41597768539999996,-0.5274766730134708,-13.701945025999999,-31.017496505833332,-23.2092823975
1970-01-01 00:01:07.514441333,6.082676010230769,6.324521167461539,4.204013478230769,0.7206998441652175,0.501511201904348,-1.389974148304348,-4.789475529204347,-35.58995437739131,-20.560533274347822
1970-01-01 00:01:07.764441333,1.5134906798616001,7.282811316000001,2.920169476400001,0.6514883091041668,0.4972940422625,-1.4935147861666664,10.3695676925,-37.615930715833336,-13.4438509525
1970-01-01 00:01:08.014441333,0.01427800106007691,9.36980001607692,3.0538801926923083,0.01863902323530435,-0.09937518260391304,-0.024071348426521727,14.363091177826087,-36.04829987260869,-12.102417406652174
1970-01-01 00:01:08.264441333,0.3101670044036,9.2124905274,2.70560566408,0.005653319190739136,0.24594329030130435,0.09644735960882611,14.015596020869564,-34.75211815000001,-16.52790824217391
1970-01-01 00:01:08.514441333,-0.28603211622499997,9.39007132319231,3.1130935962692305,-0.05481670714870834,0.238682708531875,0.33725201338750005,14.02169991,-34.74807739,-16.53125
1970-01-01 00:01:08.764441333,1.7980378840923075,7.210327201307693,2.686503771384615,-0.6957984702869564,-0.36687034548,1.401080157421739,14.02169991,-34.74807739000001,-16.53125
1970-01-01 00:01:09.014441333,6.278879003799999,6.65144824212,3.88740410156,-0.35425775497916673,-0.03000217194583334,1.3436804761666667,14.02169991,-34.74807739,-16.53125
1970-01-01 00:01:09.264441333,8.208215543230768,5.911115464538461,5.288986112307692,-0.21114231467999997,0.208170205769,0.3302814588678695,14.02169991,-34.74807739000001,-16.53125
1970-01-01 00:01:09.514441333,8.04081104724,5.611279284679999,5.476954614199999,0.29622552187304346,0.4105426293434782,-0.6697971717391304,3.8384563223043484,-33.64996263086957,-20.834013731304353
1970-01-01 00:01:09.764441333,4.481386677615385,6.750535266615385,4.10923173173077,0.7332009449583334,0.7920259411333334,-1.3172600617083332,-3.7279221812083336,-34.624275366666666,-24.556707382499997
1970-01-01 00:01:10.014441333,0.9605697925076924,7.525554375346155,3.363286778423077,0.5405394616304349,0.1265983192778261,-1.0793533337652172,4.982842694217391,-36.94159267173913,-20.786447607391302
1970-01-01 00:01:10.264441333,-0.4988047302248,9.58152112464,3.2435330383199994,-0.051221114512916666,0.030865127373291668,0.126397869569875,7.265286446,-37.34377289,-19.45074844
1970-01-01 00:01:10.514441333,0.6174602156692307,9.44903140723077,2.914508479153846,0.24886138412782613,0.010136132412695655,0.7497269245478262,7.265286446000001,-37.34377288999999,-19.450748439999995
1970-01-01 00:01:10.764441333,2.4746838683799997,8.70031560064,2.4526197509600003,-0.16499199908291667,-0.142216193608175,1.4397536143,7.265286446,-37.34377289,-19.45074844
1970-01-01 00:01:11.014441333,6.091283111538461,6.593937835730769,2.381547546423077,-0.10068426467869566,0.3690206534060869,0.7395474036347827,7.265286446000001,-37.34377288999999,-19.450748439999995
1970-01-01 00:01:11.264441333,7.350401300192307,6.561950507615384,2.971361406807692,-0.006047280117608692,0.17252925321956522,0.17568815661304352,3.787310870086957,-37.21755782565218,-18.561639617391304
1970-01-01 00:01:11.514441333,7.258238415440001,6.429890973,3.1640962280400005,0.116791506611625,0.31651621590999995,-0.10350571308579166,-7.639657299,-36.71431223708333,-16.1556697675
1970-01-01 00:01:11.764441333,5.149896504230769,7.154510580076924,2.6693701698846155,0.282851648773,0.33877144064956516,-1.5095494622173915,-5.800866044086956,-37.54472019434783,-15.889981061739135
1970-01-01 00:01:12.014441333,1.1336824951,8.751143902679999,2.37063224484,0.23545783906229165,0.17689795388065419,-1.2168358067208334,5.7081888118708335,-38.37997802,-13.431042313749998
1970-01-01 00:01:12.264441333,-0.8134315373461539,9.870456971923078,2.107024189769231,0.03865212372304545,0.30527822232909096,-0.15123008364499999,11.87649770272727,-37.44401341954545,-12.553160663636362
1970-01-01 00:01:12.514441333,-0.6385605680038462,10.16592523396154,2.1389481881538464,0.06291720030874999,0.13093006175833333,0.47717842834283336,11.89211464,-37.43759155,-12.55778503
1970-01-01 00:01:12.764441333,1.451256097438,8.27219987144,1.786924072336,-0.04899303441656521,0.1219785600621739,2.0615456830000003,11.892114639999999,-37.43759154999999,-12.557785029999998
1970-01-01 00:01:13.014441333,5.873273004423075,6.089423517115384,2.545042172930769,-0.25707686582874995,0.5830379923125001,1.3006443530708334,1.6506690195833338,-36.18988148208333,-13.197727995833333
1970-01-01 00:01:13.264441333,8.276876607961539,5.824451452423077,3.3333087335,0.06053541244826088,0.3571743349652174,0.5531668099347826,-21.911944926956522,-30.942696198260872,-16.16923614173913
1970-01-01 00:01:13.514441333,8.7517845704,4.9189030884400005,3.38127061156,0.11260685584365217,0.1623970083202174,-0.018728277440434787,-19.44283369347826,-32.351573364347836,-15.23894915304348
1970-01-01 00:01:13.764441333,7.097341003461538,5.953949467692308,3.14780410773077,0.05833239263166665,0.09611031832383334,-1.5405009886833334,-11.268435954708332,-36.086416085416666,-14.312160412083335
1970-01-01 00:01:14.014441333,2.122580072036,7.35420086056,2.24509729616,0.2726863871352174,-0.255255766526087,-1.9696414910478262,6.197642004756522,-37.59911379652174,-13.122494407391306
1970-01-01 00:01:14.264441333,-0.57030251135,9.848032449846155,2.338132060115385,-0.13877910897454168,0.14086819424416666,-0.4530221911416667,16.537880817916665,-34.991767089999996,-12.387041729583336
1970-01-01 00:01:14.514441333,-0.5250504596461538,9.957604592923078,2.2211100240384614,0.07982672419608695,0.1629201624078261,0.22674440183256522,18.911728402608695,-34.01661367043478,-11.744033482608694
1970-01-01 00:01:14.764441333,0.49141609501960004,9.793797692879998,2.3985042846799995,0.07538936997986957,0.5077769169956522,1.5537091468,12.871873420695653,-37.007783807826094,-10.030179355782607
1970-01-01 00:01:15.014441333,4.271914584730769,7.278061347423076,2.7219972697692305,-0.3637639656666667,0.22606074189375,1.7696910996416666,-3.72968076654625,-38.78447262416666,-10.815122286583332
1970-01-01 00:01:15.264441333,6.385912426800001,5.413977575639999,2.44248283088,0.11000709582782607,0.45022112779130447,0.34545341133913043,-8.250403466347825,-37.55193046956522,-13.530152900869565
1970-01-01 00:01:15.514441333,7.968702075653846,6.340042736384616,3.396488888,0.10651625830829166,0.19806174135000001,0.007965973812083332,-8.52252841,-37.63846604041667,-13.119165221666668
1970-01-01 00:01:15.764441333,7.831195713961538,6.303012049846154,2.937485697846154,-0.006280231910565215,0.05533536952043476,-0.1755106850277826,-7.710312615304348,-37.7659643426087,-13.24814207695652
1970-01-01 00:01:16.014441333,5.89031103512,6.7860543273200005,2.410868573,-0.0037987556253913034,0.065350037337,-1.0719003910434781,-2.562072256308261,-38.34327697782608,-13.285105248695654
1970-01-01 00:01:16.264441333,1.7094106469423076,7.550656022307693,2.366843508192308,0.014209089941374995,0.030102019854874994,-1.5221469005541668,12.380174020583334,-36.372250397500004,-12.821945945000001
1970-01-01 00:01:16.514441333,0.3951839798961538,10.489868897692308,2.716516359769231,-0.17680184859913045,0.05167384736782609,-0.33253202142000005,18.038104677826087,-33.94622553913044,-13.751497971739132
1970-01-01 00:01:16.764441333,0.23157443847244,9.75383679184,2.65695682976,0.10097131495383334,0.24583463619583334,0.32876694761499997,17.317459583333335,-34.63675228791667,-13.080336769583333
1970-01-01 00:01:17.014441333,1.4533508183461537,9.307921001884615,2.7950914236153848,0.12576406676347826,0.5186201405173915,1.2389421852130433,11.35273093747826,-37.78671894826088,-10.114027437347827
1970-01-01 00:01:17.264441333,4.15477809456,7.024334820520002,2.6303122376,-0.4776346448569565,0.4184414577586956,1.9120237437565222,2.617701281695652,-38.10102446130435,-12.572858478913043
1970-01-01 00:01:17.514441333,7.089234783384615,5.575248518807692,3.0533677966538466,-0.15279502227679168,-0.19178553949208332,0.060372733512916665,-6.093318780375,-37.2410171825,-14.302848021666668
1970-01-01 00:01:17.764441333,7.8727055476538474,5.9844859666153845,3.165755239653847,-0.08237628557043479,0.11389216299252174,-0.14538220667243476,-7.38953198552174,-37.45513401826087,-13.980031967826088
1970-01-01 00:01:18.014441333,7.82606760872,6.303679431200001,2.57101754156,0.3205649044318211,0.09277176272216665,-0.4976825444579167,-5.570960819833334,-37.86149231583334,-13.605657855833334
1970-01-01 00:01:18.264441333,3.388434483461538,7.586552528884615,2.0221334135,0.21598362003304353,0.32158818827999996,-1.9864157230869568,7.726330093430436,-37.920240818260865,-10.810549279826086
1970-01-01 00:01:18.514441333,0.04914395841346156,8.847052459346154,1.8956522018076924,-0.08486355267826087,0.14211544231113044,-0.8283809306391305,21.623910821304346,-33.39643810086955,-7.993703469130435
1970-01-01 00:01:18.764441333,-0.9256750488239999,10.4787014288,2.4484524170400004,-0.14461448924297082,0.20509213929095835,-0.12084757632862501,24.484729925833335,-30.506207704166666,-11.121682007833334
1970-01-01 00:01:19.014441333,-0.954179235626923,10.02193619926923,2.367471049384615,0.14364148823130432,0.418287870353913,0.5215928178652173,22.526611826086956,-31.726516557391307,-12.387035202608697
1970-01-01 00:01:19.264441333,0.9489965515455999,8.91141860968,2.3762126403600003,-0.12248367342791666,0.15462633951916668,1.4846650313208334,15.96099043,-35.916348140000004,-10.307367323666666
1970-01-01 00:01:19.514441333,4.261891197884616,6.999237318730769,2.269194647,-0.23599163183956526,0.032478554826086956,1.3162822049565217,0.13029029067391298,-38.99253778869565,-11.595513218695652
1970-01-01 00:01:19.764441333,7.174994905884616,6.806449761,2.9113362297692302,-0.004568998292173912,0.49050487466391307,0.20117253791434783,-8.274216258043475,-38.74443734217391,-10.435573744
1970-01-01 00:01:20.014441333,6.900350647080001,6.756242321760001,2.87596939072,0.026339853829525,0.09140671471458334,0.13384808766845832,-10.813757658125,-37.68872785583333,-11.996956785
1970-01-01 00:01:20.264441333,6.608428855307693,6.290311537461539,2.763127124576923,0.15831522571130438,0.11338883177969565,-0.6034841413604347,-9.847571517478261,-37.65215301565217,-12.288437469565217
1970-01-01 00:01:20.514441333,2.33020431516,7.926736267079999,2.0765897094800003,0.11756807914125,0.1759886133941667,-1.6670982167583333,3.985515176875,-38.06135352541667,-12.227153657916666
1970-01-01 00:01:20.764441333,0.4486861830423077,10.17156734726923,2.271054241423077,-0.16635458965086958,-0.0464591022747826,-0.5962453050560869,15.325682059565219,-35.50531967695653,-12.16563589652174
1970-01-01 00:01:21.014441333,0.2519952040494808,10.157790227923076,2.6996130489230765,0.10886669904091667,0.4079459949125,0.4623071240791667,16.62172067083333,-35.36785936291667,-11.135963598750001
1970-01-01 00:01:21.264441333,0.8232580261519999,9.44578339164,2.49242497556,-0.09359544349017392,0.27919880398347824,0.5509799161739131,14.208592622173912,-37.56570849217392,-9.719316772782609
1970-01-01 00:01:21.514441333,2.5356693562307693,8.00775931726923,1.9618606743461542,0.09260992530214347,-0.0038640449124347823,1.6006918082434782,5.446611756543478,-39.39364972347826,-10.768987448260871
1970-01-01 00:01:21.764441333,5.396715932961538,6.576447284461537,2.400978293846154,-0.08692226030791667,0.41253348078225,0.5072193076125,-6.904086987208334,-38.25166988416667,-13.329554438333332
1970-01-01 00:01:22.014441333,7.68570748896,7.438679187,2.801119043,0.055539711383478255,0.3605598473308696,0.10462750850869564,-5.1874926194347815,-38.209680473913046,-14.23762781695652
1970-01-01 00:01:22.264441333,7.130629472,6.725082426807692,2.7859661689230766,-0.10697847212875,0.015603259947916668,-0.11015271487791667,-6.518016656166668,-37.89604695625,-14.527806798333335
1970-01-01 00:01:22.514441333,3.09882595816,7.166078063920001,2.33591044924,0.1663359257752174,0.29613813846304343,-1.7109566796739129,1.9710484793043477,-38.22203080478262,-13.797894643478262
1970-01-01 00:01:22.764441333,0.7994068556884616,9.018820266615386,2.692733124846154,-0.09530380958917392,0.1851322017547826,-0.777814577473913,14.621548860869567,-36.27801165434783,-12.160734258695653
1970-01-01 00:01:23.014441333,-0.04095137965703847,10.35292098946154,3.0258135575769236,-0.07483055931333332,-0.059378425512500006,-0.27094944799208337,19.643884579166667,-33.24758672666667,-13.792089025833333
1970-01-01 00:01:23.264441333,-0.12658276977412,9.97940572016,3.11377088012,0.08098576580556523,0.2439004707534782,0.5527328025782609,17.70436606304348,-34.443824435652175,-13.391200106086957
1970-01-01 00:01:23.514441333,0.9670524656023078,8.994075569653846,2.8545120884615383,0.13257315493891667,0.22486866761791668,1.3414515280625,12.277441342000001,-37.01057084333333,-13.435885549166668
1970-01-01 00:01:23.764441333,4.47820291373077,6.785591213538462,2.113961686346154,-0.04221543380943478,0.06495061663739132,1.5498924125869566,-3.299919709013044,-38.95087383173914,-12.661228595217393
1970-01-01 00:01:24.014441333,7.866848803720001,6.52624260868,2.47712678828,0.05172388652304349,0.4138258039333479,-0.013048691599999995,-8.618224351304345,-38.18555566565217,-13.61686171652174
1970-01-01 00:01:24.264441333,7.057725307769231,6.4679690200384625,2.4168683271153846,-0.039877798170416666,-0.014083661602500004,-0.03013263921833333,-8.736125826833334,-38.137219905833334,-13.686161200416668
1970-01-01 00:01:24.514441333,4.58972561648,6.97096181016,2.2112077698,-0.03151550577739132,0.30776514684478257,-1.2738119391173914,-2.95508069573913,-38.527352540434784,-14.33812319782609
1970-01-01 00:01:24.764441333,2.084662997923077,8.721377264192306,2.8102733141923077,-0.16390523100670834,-0.07418111989983334,-0.9967572242791668,8.973658681083334,-37.21404759125,-14.378403266249999
1970-01-01 00:01:25.014441333,1.1251698127215386,10.158452312307691,2.9438647403076916,-0.055333833478304326,0.025874507650869568,-0.15609346223604348,13.530466743478263,-35.55653132521739,-15.250665789999998
1970-01-01 00:01:25.264441333,1.542823681632,9.818669970080002,3.2538495848799998,0.03697163276030436,0.31422949954869567,0.45954297807391314,12.799337636086957,-36.24877233043479,-14.186726694347826
1970-01-01 00:01:25.514441333,2.1782472346923076,8.928955219076922,2.691541372423077,0.16238055077508334,0.09079311200237501,1.0779802799583333,8.988141854624999,-37.39528671875,-15.752059738333335
1970-01-01 00:01:25.764441333,4.8901520303461545,7.4606700720769235,1.8166741298000002,0.33982400416608693,0.13682691360086957,1.264659632773913,-2.830097903487391,-39.312842161739134,-13.47752927695652
1970-01-01 00:01:26.014441333,6.950454455519999,5.61582982184,1.96489797356,-0.10287027565833333,0.47326279214791667,0.18051706724249997,-9.789500077458333,-38.608756702499996,-12.682658515
1970-01-01 00:01:26.264441333,7.182531157230769,6.657198592,2.097421082653846,0.09940794000547823,0.1763023541347826,-0.05231722250260869,-8.383520084913044,-38.6235504147826,-13.640547254347823
1970-01-01 00:01:26.514441333,7.12281802372,6.1217238098,1.90505242316,0.13512530164891307,0.14055011348165217,-0.30545356716108696,-7.253489618608696,-39.00839332869565,-13.065082632608695
1970-01-01 00:01:26.764441333,3.4245152224615385,7.706631669346153,1.7344144204269227,-0.05968793903112501,0.38279401347374997,-1.5350480775416664,1.3381772240583336,-38.834330559166666,-12.094258784166668
1970-01-01 00:01:27.014441333,1.1454008190838463,9.682781859076924,2.824441927384616,-0.25413561840695653,0.20174904936434787,-0.8418997034,14.612057686565215,-35.88880041434783,-13.070068317391305
1970-01-01 00:01:27.264441333,-0.027812164313200008,10.019186994239998,2.8319908447200004,0.061051435205875,0.012560892080000002,-0.17998175718224999,19.524880012083333,-33.34246683166666,-13.665008465416667
1970-01-01 00:01:27.514441333,0.15965453514392308,10.046853614307691,2.957060376615385,0.07687241908391304,0.21038143985130442,0.3832744372956522,18.770425797391304,-34.22793695217391,-12.476755682173915
1970-01-01 00:01:27.764441333,0.6593788147915384,9.315612699076922,2.4769280477692304,0.08683182744347827,0.2881792874603044,1.2268506703434785,13.515852098260867,-37.04900957130435,-10.697240082999999
1970-01-01 00:01:28.014441333,3.89288270876,7.5425811218000005,2.0435983154799997,-0.0965390026825,0.2330800242041667,1.5945776601666666,2.713958621029166,-38.51764440583334,-12.624520182291667
1970-01-01 00:01:28.264441333,7.057569861807692,6.1188776515,2.7944235815769236,0.07752371187373913,0.4216976682508261,0.11440056028869564,-4.4538359019565235,-37.95520069347826,-14.264719590434789
1970-01-01 00:01:28.514441333,7.138373675559999,6.189215460119999,2.9753507264000008,-0.10947287955583333,0.027982347626791665,-0.1716494670495833,-8.434390465458334,-37.48635228458333,-14.768410484166665
1970-01-01 00:01:28.764441333,4.248637988730769,7.072521461999999,2.4802211995769223,0.024667360613913062,0.014581632510434784,-1.236838024552174,-1.9307806595739125,-38.22588149391305,-15.133679638695654
1970-01-01 00:01:29.014441333,2.3321560258076923,9.1233432945,2.4660641010384614,-0.057104656272173926,0.12745569906347823,-0.6507696560013043,8.546316126391304,-37.1621201547826,-15.712918655217392
1970-01-01 00:01:29.264441333,0.972449780268,10.09031308628,2.74798553464,0.11311666007124999,0.41260659627741675,-0.7529174092895,15.87767088375,-35.25191815708333,-14.101364295000002
1970-01-01 00:01:29.514441333,-0.2705105473369231,9.679529008,2.605044321038462,-0.02081857050395652,0.11798957913130433,0.3023350183752174,18.552192273043477,-34.650054599565216,-12.670452947391304
1970-01-01 00:01:29.764441333,1.794163249130769,9.493275938576923,2.6685353675384613,-0.016130168262500005,0.22012828895583328,1.6233818059124998,11.244883140041665,-37.7911394425,-11.519534825833333
1970-01-01 00:01:30.014441333,5.13504761356,7.74660684812,2.23407421876,-0.0007582708786086972,-0.15640831383273912,1.1176667005956522,-3.8892261255869567,-39.14233779826087,-12.381045839565218
1970-01-01 00:01:30.264441333,6.267311289846153,5.818682679423078,2.0753189673846153,0.06000861699826087,0.45806317613478265,0.3368601008591305,-8.629481937652175,-38.4022281473913,-13.526760183478258
1970-01-01 00:01:30.514441333,7.4222493530800016,6.144512420719999,2.3438679015600004,0.07071382032083333,0.1784910534841667,-0.012878552339416668,-7.931222955333333,-38.382328352083334,-14.013217528333334
1970-01-01 00:01:30.764441333,6.276632291423076,6.562549262384616,1.7674380552692308,-0.01371251100860869,0.22791221843739132,-0.5470473202335219,-6.361937066782609,-38.645909183913034,-13.969725732608696
1970-01-01 00:01:31.014441333,3.687754352307692,7.77670901953846,2.5903230109230773,-0.27755428043416663,0.1734841243183333,-1.2822860380375,-0.5281109908541667,-38.66780154,-14.525610486666666
1970-01-01 00:01:31.264441333,1.8360279603319998,9.7886424128,2.9320667358,-0.002508207379130446,0.10122075734130434,-0.9599915198652174,11.118004177608697,-36.21804511043478,-16.698026990000002
1970-01-01 00:01:31.514441333,0.3867956542923077,9.639268499576923,3.188294906615385,-0.011872197906086962,0.15454716648608696,0.09281255371308697,15.771544995652171,-35.03521811391304,-15.708375434347829
1970-01-01 00:01:31.764441333,1.0779660503384616,9.943073273307693,3.003112687307692,0.17547817544166666,0.3787438124458333,1.2785446520125,12.505481601541668,-36.94050010083333,-14.009767650416668
1970-01-01 00:01:32.014441333,3.6428905701599996,7.81060775756,2.46088256844,0.0032158743426087097,0.20877882356873914,1.3962539563782608,2.5633641119130446,-39.36846575478261,-13.197775052608696
1970-01-01 00:01:32.264441333,6.294462520884614,6.061754132846152,2.3770799138076923,-0.07852812946195832,0.20592148468585836,0.3983120241029166,-5.133839249499999,-38.934443791666666,-14.15087890625
1970-01-01 00:01:32.514441333,7.799650543199999,6.225919134479999,2.96863868408,0.07368249729347827,0.16447973534652177,0.2552614364282609,-9.230237669869567,-37.76205129217391,-14.623572018260871
1970-01-01 00:01:32.764441333,6.928503640884616,5.855293086076922,2.4996692186923073,-0.08282024793956522,0.06125343828413044,-0.11037891438608695,-12.800422004782611,-36.36741688043478,-15.435222251739132
1970-01-01 00:01:33.014441333,5.6938595581538465,6.686664240884615,2.5275458643846154,0.09701432442375,0.47914574170833335,-1.0260210369316667,-7.789966544270833,-37.51545937833333,-15.594638546666667
1970-01-01 00:01:33.264441333,3.4749637755600005,8.44946724248,3.03892053216,-0.13101998080830435,0.4366146102426087,-0.6311539257852175,4.896153698865217,-37.73414595217391,-16.4510881173913
1970-01-01 00:01:33.514441333,2.990538834846155,9.480080302000001,3.6627390641923077,0.05785646915783333,0.0080055964319625,0.07553627892304166,7.584024767166667,-37.54242483791666,-16.054088155
1970-01-01 00:01:33.764441333,2.958822097769231,8.373656123346153,3.0170164666538466,0.04570343440163044,0.17491288819443476,-0.14072829654747826,8.623989105217392,-37.557203210000004,-15.473923350434783
1970-01-01 00:01:34.014441333,2.0414487854,9.3896082092,2.7004264344399997,0.07524913251173912,0.179203783149887,0.28231267876,9.606907803130435,-37.57682501782609,-14.839017203043479
1970-01-01 00:01:34.264441333,3.5737260906153847,6.572923842192308,3.1852781032692303,-0.51832834822,-0.1367038865525,2.5087936320833335,-2.5749771598208335,-38.00139156958334,-14.619089405416668
1970-01-01 00:01:34.514441333,9.114788008461538,2.307250125630769,2.927807746269231,-0.16500477452334786,0.09112888396913042,1.0842115515652175,-21.664137633478262,-29.44672916304348,-19.479493513913045
1970-01-01 00:01:34.764441333,10.8195067196,2.23216419072,3.60712095332,0.2707475020166667,0.2919946513025,0.18016529052,-25.137043237916668,-26.150277217916663,-20.227165857916667
1970-01-01 00:01:35.014441333,9.501819710423076,3.284550511269231,3.189814822807693,0.4092099964565218,0.3309225369921304,-1.7505481865086956,-19.60552816695652,-30.32269195913043,-19.891311977826085
1970-01-01 00:01:35.264441333,4.7413004149999995,6.281687164279999,2.5126090027199997,0.6465197050130433,0.7754746313043479,-1.8172936542608695,-2.5323032192347825,-38.201532446521746,-15.346223333043483
1970-01-01 00:01:35.514441333,1.367584938603846,8.819066426230767,2.3988596225769228,0.18734383688029166,0.25490933011666667,-0.8554246462375,10.631465157416667,-38.60752471333333,-10.071943720166667
1970-01-01 00:01:35.764441333,-0.2153502537715385,9.498831693192308,2.868444654,-0.01767112294373912,0.26479546297713047,0.038018383390913034,14.086213402608697,-37.93639042130435,-8.692261571434782
1970-01-01 00:01:36.014441333,0.5808042114447999,9.64224684452,2.21172269896,-0.062211046842916666,0.17452292059695837,0.2531708573975833,14.430333931666667,-37.77080202041667,-8.11967706675
1970-01-01 00:01:36.264441333,0.7623416254534615,8.742017035923077,2.815811796884615,-0.5338753520304348,-0.3181396275778261,0.840536433726087,12.833603651999999,-37.96411182565217,-10.621222246782608
1970-01-01 00:01:36.514441333,4.581568732653847,5.461588721692308,3.121844629115385,-0.5688802490130435,-0.2921440353530435,1.6420530910869564,-0.7448145047608697,-37.35281620869565,-19.278819872173912
1970-01-01 00:01:36.764441333,8.12267880244,6.197250750720001,5.2580139038,-0.1788392046725,0.4281382833916667,0.8647108587208333,-11.727333107999998,-33.798649787916666,-22.558126687916666
1970-01-01 00:01:37.014441333,9.415316901846154,4.796625366269231,5.4844910958461535,0.21172919840913038,0.1536940332173913,-0.38397953660478257,-12.778939453913045,-33.05464346478261,-24.090898514347824
1970-01-01 00:01:37.264441333,6.529329880961539,6.000997783884615,3.4969530485769225,0.7852939069208333,0.2891315228308333,-1.1708498870291668,-4.997096801679167,-37.837004185000005,-19.81853826875
1970-01-01 00:01:37.514441333,1.726575567704,7.63088549192,2.6999174926399996,0.4760171007902609,0.5558613694217392,-1.3876248429652176,8.734732254556521,-40.22774953391305,-12.279678841304346
1970-01-01 00:01:37.764441333,0.7314078756846153,9.425737539269232,2.5881237383076927,0.019924568341304346,0.5878511411404347,-0.06881386495695653,15.32582262304348,-38.73186194304348,-8.295951884826087
1970-01-01 00:01:38.014441333,0.5277545287956,9.23576412952,2.89491998292,-0.04181917948879166,-0.06822851114124999,0.06326035852583332,15.83510919375,-38.71174669333333,-7.432915608249999
1970-01-01 00:01:38.264441333,0.3870604881907692,9.070157740576924,2.8218511611538464,-0.0039615067674347824,-0.5566382398717391,0.026816041248695657,14.142213365652177,-39.17132601391304,-8.362099606043477
1970-01-01 00:01:38.514441333,2.0433949690961537,7.583932976384616,2.0168597646653845,-0.3892726789504167,-0.22383314311956662,0.856483737325,10.765601058666666,-38.918429214166665,-12.773945450958331
1970-01-01 00:01:38.764441333,4.64082335812,7.929508502279999,3.40379577016,-0.22653676227832606,-0.42670339863765216,1.4051881173478262,-0.16648660535652166,-38.653597459130424,-17.52057034043478
1970-01-01 00:01:39.014441333,8.305398066615384,7.453341081961539,3.346895863461538,-0.07573781471608695,0.1766324338921739,0.21348455070434783,-6.080502821086956,-37.45125049086957,-19.416748627391303
1970-01-01 00:01:39.264441333,6.953904665384616,7.71906734773077,3.0608579901153847,0.2974643173416667,0.5251395124791667,-1.1324896104125,-5.339023987404166,-37.872328599583334,-18.912682612500003
1970-01-01 00:01:39.514441333,1.7317967101576,7.653560339400001,2.7009533386399998,0.3247146425130435,1.0586870026913044,-1.3899125225217392,8.38094443912174,-38.72289126782608,-15.822204754782609
1970-01-01 00:01:39.764441333,-0.3222049713492308,8.746789803076924,2.8232501748846155,0.1331744731445,-0.17525813850662497,-0.4714868379104167,18.817409595416667,-36.307471435,-13.099641601666667
1970-01-01 00:01:40.014441333,-0.5449533022223078,9.245754124615384,2.669358655384615,-0.07206462430886956,0.2596868067774739,0.14524125254826087,20.721015929565223,-34.73544394391305,-14.238785660434782
1970-01-01 00:01:40.264441333,-0.6635880615320001,9.257816272160001,3.01157539664,0.043433835389578256,0.3821374108234782,0.43632385654347833,20.058792860869563,-35.54580373304349,-13.153955958695652
1970-01-01 00:01:40.514441333,0.5504399696153846,7.930951731730769,2.6016072376538464,-0.543507092165,-0.17760730782374998,1.2566965867958333,19.5385685,-36.18747711,-12.187956809999998
1970-01-01 00:01:40.764441333,4.77626770032,7.2439341614399995,3.5742373352,-0.04865298404130433,-0.4105137448886957,1.4939730115782608,19.5385685,-36.18747711000001,-12.187956810000001
1970-01-01 00:01:41.014441333,8.425085713384616,7.356256432346154,3.738999710115385,0.012300417102583333,0.31961671933958336,0.18080655950708335,2.035096129958333,-36.81430514666667,-16.897350352083333
1970-01-01 00:01:41.264441333,6.753269964384615,7.0488764014615395,3.9424036524615382,0.29047986613913046,0.4307931085839131,-0.573346516378261,-4.2898806074913045,-38.012941444347824,-19.425685634347825
1970-01-01 00:01:41.514441333,4.5295687134,8.32507591564,2.9117569702000003,0.1744576468613913,0.43954418148913044,-1.053411115726087,1.9721036578913045,-38.963954261739126,-18.571078176956522
1970-01-01 00:01:41.764441333,1.5803904841192309,7.530966198230768,2.1013648048076927,0.24228784007083334,0.5506980307458332,-0.60971853541,14.242105285083333,-37.76279401833333,-15.730085691666666
1970-01-01 00:01:42.014441333,1.5081771909884614,9.392782991461537,3.6372056227692307,-0.09980247720217393,0.08125220191226087,0.9581499508260869,13.096588302217393,-38.99610751521738,-13.531985903478262
1970-01-01 00:01:42.264441333,2.57914264524,8.8568001892,2.8311525878400006,0.146401196175,0.1139814705728875,-0.008110405184166662,8.366675376833333,-40.76073233333333,-12.393099030416666
1970-01-01 00:01:42.514441333,3.121078913846154,8.497753829923077,2.834689847538461,-0.1876971797233913,0.25060493347486956,0.828066726026087,5.013056506226087,-41.25595590391305,-12.271479066956525
1970-01-01 00:01:42.764441333,5.27230733426923,6.516980561461538,3.4293340478076924,-0.3126725482599565,0.4709582806647826,1.3486935483652172,-3.385085561991304,-40.54104299086957,-14.814342290869567
1970-01-01 00:01:43.014441333,7.768718866,5.100643158,4.09266925052,0.009423584362083343,0.2422470912760625,0.7648198430533334,-16.343592484166667,-35.78870995875,-18.187417427499998
1970-01-01 00:01:43.264441333,8.001288158692308,5.007461929307693,4.495664678615384,-0.10867763654634782,0.2235981426817391,-0.2738108815860087,-14.873161191739129,-36.237844053478256,-18.683463139130435
1970-01-01 00:01:43.514441333,7.977280390730769,5.455451484115385,4.200720326230769,0.19853903337583337,0.033746964142083336,-0.4892327001647083,-12.460794966833333,-37.233222642916665,-18.473090251666665
1970-01-01 00:01:43.764441333,4.808103497359999,6.47920442504,3.06214024656,0.1199103269030435,0.0608711731718261,-1.4504698929565216,-2.2510397641260864,-39.81004150956521,-16.674612999130435
1970-01-01 00:01:44.014441333,2.5004291770000004,8.654840627730769,3.3537585155,0.13489025480626085,0.09779115705313042,-0.7569644995086956,10.098114241608696,-39.10633734,-15.771265900869563
1970-01-01 00:01:44.264441333,1.5654676701538461,9.363478546153846,2.9421778634999995,0.07742753728016667,0.13346396185458334,0.2221228754975,13.741836148750002,-38.527822493749994,-14.558209140833332
1970-01-01 00:01:44.514441333,3.18487302244,8.050606677240001,3.15018116452,-0.1304717819043913,0.08068924498826084,1.1801243955913043,5.687823046347825,-40.50802446521739,-14.154784368695655
1970-01-01 00:01:44.764441333,6.012587145230769,6.5306425358461535,2.4988056301153847,-0.032076971648374995,0.15678633675125,1.03631833569125,-6.977379640466666,-39.94958368958333,-15.111765465
1970-01-01 00:01:45.014441333,7.243684757038462,6.553803986692308,3.291378619923077,-0.0187145799673913,0.28740132692173914,-0.21681029260652177,-8.77436472021739,-39.25249564130434,-16.311919336521736
1970-01-01 00:01:45.264441333,6.676104968320001,7.162072393760001,3.13462551272,0.13444132738565215,0.10520113713652175,-0.21009233983130432,-5.727162962391305,-39.5840772552174,-16.89403011521739
1970-01-01 00:01:45.514441333,5.355332758961539,7.786214253384615,2.5735406024615384,0.3112301528508334,0.47821640382227915,-0.7723662990375001,-0.03519231076666666,-41.15101846041667,-13.551566005416666
1970-01-01 00:01:45.764441333,2.6718418762,7.8469821167600005,2.5785858031999997,-0.010416352671217387,0.07503102784565217,-0.5443242527682609,9.701415249000002,-40.42188677652174,-12.429612242608696
1970-01-01 00:01:46.014441333,2.056043665923077,9.64714442903846,2.9470082033461535,-0.07432864707083334,0.13791280723479168,-0.3035243817966667,13.58339774625,-39.20049301833333,-12.748464505000001
1970-01-01 00:01:46.264441333,1.9832028316153845,8.939594632653847,2.535968733576923,0.038705722143478255,0.16400984379330438,1.1175220699521737,11.761391515695653,-39.81808339043478,-12.285304443043477
1970-01-01 00:01:46.514441333,4.396315814159999,7.53836588732,2.9579988097600007,-0.3217197915730435,0.4866320886043479,1.2335329133869566,-1.4825512430826087,-40.94771094869565,-13.903331963913045
1970-01-01 00:01:46.764441333,6.4133671805,5.742773226230768,3.8851189304230767,-0.17777605508999997,0.038444158933333326,-0.13495349309000002,-6.462212602375001,-39.842389425,-15.994794486666668
1970-01-01 00:01:47.014441333,6.849807674769232,7.18727513826923,4.042683580769231,-0.12643276973,0.10258571479086957,0.13233579339043477,-4.421153296565217,-39.01005786347826,-18.538788920434783
1970-01-01 00:01:47.264441333,7.7481157105200005,7.2447784058,3.66163159792,0.4154015815179166,-0.12571583192500002,-0.3812038585640209,-8.900264342666667,-37.849929332916666,-18.973504225000003
1970-01-01 00:01:47.514441333,3.582805287230769,6.769136968730768,2.386418187076923,-0.046878670709130425,0.05958619083739129,-1.296091009778261,-5.005116770960435,-39.28992644695652,-17.166828321739132
1970-01-01 00:01:47.764441333,1.4578184509653849,8.783970178461537,2.9961809481153847,-0.1417184152182609,0.7249334039913043,-0.5643212224956522,8.902809920304348,-39.02960205043478,-16.603096339130435
1970-01-01 00:01:48.014441333,0.462639935296,9.83623145152,3.44063117068,-0.026710683793333332,0.35492599740458336,0.2339297098516,13.251907984999997,-38.37718613958333,-15.648591081666666
1970-01-01 00:01:48.264441333,1.8116019850769232,8.941350596923078,3.308471920384616,0.12794381188643475,0.6217816057434783,1.7101028018000002,13.593979544695653,-38.41402103565217,-15.344564604347827
1970-01-01 00:01:48.514441333,4.8203510284615385,5.9693271050000005,3.2180081176153843,-0.3521771182708333,0.2436062720304167,1.3478262324999999,4.560614665341666,-40.767966906666665,-14.636789519999999
1970-01-01 00:01:48.764441333,7.4328652771199994,4.87523589472,4.49814605716,-0.5779665106043478,0.1404120958904348,0.2937998184104349,-0.873115788367826,-39.91505266304348,-17.541708987826087
1970-01-01 00:01:49.014441333,8.5873252575,4.932773014884616,4.860225800730769,-0.0835345388273913,0.1699149794052174,0.12675297910165217,-0.4381030538695653,-38.75518666043479,-20.01583737913044
1970-01-01 00:01:49.264441333,8.156883826538463,4.173851201038461,4.440711646346153,0.3755233890083334,0.12693218736416664,-0.235761787725,-10.962917566216666,-35.20473003458333,-21.345781166666665
1970-01-01 00:01:49.514441333,5.11573776848,6.060746612600001,2.8847471374399998,0.48302797357304345,-0.4063703229999999,-2.1635233007826087,-9.54559149926087,-36.8777276752174,-19.838309247391305
1970-01-01 00:01:49.764441333,1.725202806974231,9.181704623884617,2.3458180001153845,0.010513371938750002,0.5406035361370833,-0.8206733148375,-0.3174585092058333,-39.071487108333336,-18.057112455
1970-01-01 00:01:50.014441333,0.717947405276923,9.907435843115385,2.712319318307692,-0.03866405048008696,0.2763009110260869,0.05509079052565218,2.962307732956522,-38.72138529217392,-18.661188208260874
1970-01-01 00:01:50.264441333,1.158782299796,9.863810101519999,2.9693452147599997,-0.032645726222565216,0.07942005425913044,0.6750714817869565,0.9304581504334781,-38.55123669173913,-19.150541803913047
1970-01-01 00:01:50.514441333,3.310930269730769,7.510130679923076,2.121762771653846,-0.06452442628,0.17437801339458334,1.7012917063875002,-12.140532612666666,-36.75043328583333,-18.073818524583334
1970-01-01 00:01:50.764441333,5.551707088846154,6.341752642076923,2.793237586346154,-0.21453934445608694,0.47512447230913046,0.39964756071799995,-17.321013492608692,-32.69265514782609,-22.014602163913043
1970-01-01 00:01:51.014441333,7.6511832824,6.627605822679999,4.57137377936,-0.13831010709429167,0.6346188472312501,0.29428587043750004,-18.245112736250004,-28.979411205,-26.088287274583337
1970-01-01 00:01:51.264441333,7.752660950923077,5.3984028097307695,4.690133355884615,-0.07705141932073914,-0.15788090135873914,-0.0488990180601087,-17.249615876521737,-27.795884256521745,-28.03530137478261
1970-01-01 00:01:51.514441333,4.633568291192308,6.740707626269232,3.462611001846154,0.5206205987434783,0.34357510051869566,-1.6036629159130436,-11.08435618426087,-31.773556087826087,-26.38009502521739
1970-01-01 00:01:51.764441333,2.02880308232,8.16032252204,2.99343911136,0.10504329202616668,0.10100960313494584,-0.8398964081916667,1.3599359940037499,-35.42999410708333,-24.362186750833335
1970-01-01 00:01:52.014441333,0.6843192584576923,9.959792350923076,3.1949099964999994,0.14817270348400433,0.44075687683478254,-0.0514200015785652,9.840240458086958,-36.54677167217391,-19.327278883913046
1970-01-01 00:01:52.264441333,0.9391470336846155,9.517778831,3.088901596,-0.18499922733112498,0.1339860158,0.6641274361583333,14.91186718125,-38.269492944583334,-12.769737721666667
1970-01-01 00:01:52.514441333,3.33906437984,8.124469079599999,2.83204473268,-0.2806196272734783,-0.02994607044521739,1.584418763304348,8.834088450695651,-39.52888438913043,-14.214740089565215
1970-01-01 00:01:52.764441333,6.368195730346154,5.683674967923078,2.9775331878461535,0.020131427911956525,-0.2183823127878261,0.6434971780695652,-0.30708441539130443,-40.091477601739136,-15.454310707391302
1970-01-01 00:01:53.014441333,7.534242078384616,5.7933968001923075,3.1946106192307684,-0.04448489138041667,0.4419953116775,0.3378700399816667,-8.080468893333332,-38.52899408416666,-16.398878057083333
1970-01-01 00:01:53.264441333,7.91154585572,6.10153978268,3.4212075622399998,-0.18546284286347828,0.16132165876173915,0.19156698866478264,-13.184937103043477,-36.08947339304348,-18.32687187217391
1970-01-01 00:01:53.514441333,7.5785384251538455,4.973269571192309,2.9688282130384613,0.1580481921175,0.25554934447166666,-0.7159757492304166,-11.877275705208334,-36.41072003083334,-18.445558865833334
1970-01-01 00:01:53.764441333,3.839227823115384,7.1606420605,3.0632414948846156,0.05761392187956524,0.09762782522826087,-1.7745545791304351,3.014872613273913,-37.70081594782608,-18.859106146086955
1970-01-01 00:01:54.014441333,1.5810640832692304,9.533104653230769,3.4828938235,-0.09188807479152172,0.4627475483372173,-0.3078995687843478,13.717827715217393,-36.33616671391304,-17.376916636521738
1970-01-01 00:01:54.264441333,1.44148441772,9.465266876200001,3.24652681276,0.055666471103577496,0.25156686795583333,0.32434509896333336,15.734894872083336,-35.9052373575,-16.579353094583336
1970-01-01 00:01:54.514441333,2.3791870705,8.280785786576923,2.8689743217692305,0.30666161878521736,0.24026831595921738,1.1420666293956523,6.666899764173914,-39.363182731304335,-13.96850992347826
1970-01-01 00:01:54.764441333,4.430636444038462,7.233344720653847,3.9391911023076918,-0.47783358270416665,1.0604058693783125,1.1359279918916667,3.4020578265208337,-39.796399592916664,-14.152687032916669
1970-01-01 00:01:55.014441333,6.61773834232,5.99332681276,4.5592968932,-0.12285412460173914,-0.05316455192391303,0.26948779869869566,-6.030547411608697,-39.0454655526087,-15.825695825217394
1970-01-01 00:01:55.264441333,7.202612474807692,6.743125674884615,4.582535952,0.19568781138270433,0.4192472746556522,-0.5303940449173914,-4.522334472008696,-38.96910194782609,-16.44330899565217
1970-01-01 00:01:55.514441333,4.016309579769231,7.206872846115386,4.015785669153846,0.08301661692291666,-0.15606671137541667,-1.4060516133999998,0.5132174963683334,-39.55034812291667,-17.344648321666664
1970-01-01 00:01:55.764441333,0.9376441589705601,8.64060177612,2.8186924988,0.7736848483386957,0.41585251083513486,-0.6999318967199999,6.2595608958695665,-40.10192091652174,-15.262476092608695
1970-01-01 00:01:56.014441333,0.1478406407169231,9.564959564384615,2.232273348346154,-0.15653424958695836,0.3559285597635,-0.26034614739291667,9.561703285,-40.14899079041667,-13.467008589999999
1970-01-01 00:01:56.264441333,-0.39266805793076914,10.142850142307692,2.4464203350769234,-0.14131220009882609,0.5509818801413044,0.41547617089703476,8.522255523782608,-40.597778818695645,-10.919443587347827
1970-01-01 00:01:56.514441333,0.061935205063199994,8.40689577032,2.58826766968,-0.08521264103347825,0.19926060395652173,1.3394636926000003,-0.42397327011739117,-41.81322777826087,-7.065575433695652
1970-01-01 00:01:56.764441333,4.850870255692308,6.935918989884614,2.988201387769231,-0.7561210567750001,0.11711640396125,1.4302780367791665,-16.095185637375,-37.25364843958334,-11.746301731
1970-01-01 00:01:57.014441333,7.2905776273461536,6.300853077692309,4.987846949730768,-0.017595760680869543,0.16141174668826086,0.14064488067086958,-23.52794016869565,-31.104387615217387,-17.05894544869565
1970-01-01 00:01:57.264441333,6.52487744748,6.9788593872,4.39366333004,0.4289054206291667,0.650526873775,-0.7249824964041668,-19.29231433083333,-33.83305263416667,-16.923420190833333
1970-01-01 00:01:57.514441333,2.8718529510000006,6.9034998673076915,3.8125141436923076,0.3088107970826087,-0.1362539528683913,-1.1856434319999998,-8.869686126217387,-38.572081359565225,-15.379286972173915
1970-01-01 00:01:57.764441333,0.48440421471980777,9.21863168026923,3.1969595806538456,-0.12876326268682609,-0.06295222716260866,-0.6330150184782609,0.19720027766521744,-40.197642947391294,-13.900850294782606
1970-01-01 00:01:58.014441333,0.5292574035704,9.95079122332,3.59874437248,0.03315729814708333,0.019349507756458335,0.28561552448166666,2.656637192,-39.86144638,-14.711920740000002
1970-01-01 00:01:58.264441333,1.7870875784230766,9.082052236615386,2.7767718271153847,0.24106806564782612,0.3345318549956522,0.9172841038304348,1.3463583823913037,-39.89819435434782,-14.370681390869567
1970-01-01 00:01:58.514441333,3.5892131159615386,7.17755112876923,3.0976180854999997,-0.31652772675,0.42631255835250004,1.3369125748041668,-12.520870287499998,-37.82672421083333,-14.466018001666669
1970-01-01 00:01:58.764441333,6.743698406999999,6.451362322879999,4.00053883672,-0.1773948533347826,-0.29477134646956527,0.8759892583478259,-23.248137184347826,-31.461577125217392,-16.57462601043478
1970-01-01 00:01:59.014441333,7.610203346923076,5.740562438923076,3.3811688231923074,-0.01877224560586957,0.36394254474739124,-0.05728129223952174,-26.2072747273913,-28.54643805086957,-17.591773737391303
1970-01-01 00:01:59.264441333,7.673798024115385,5.776913769115385,3.0224743476153844,0.23963905918583336,0.3134732215375,-0.1811447080983333,-24.662159920416666,-28.9768515425,-19.07419475
1970-01-01 00:01:59.514441333,5.0872609863200005,7.02102969356,3.00468372808,-0.03404780241113042,-0.08406158666391303,-1.8080617966086954,-16.15504436952174,-34.43693584,-18.487219188260866
1970-01-01 00:01:59.764441333,1.0135365706461539,8.691877071615384,2.872981373692308,0.15890384115333334,0.5594144941416667,-0.8313657331041666,-5.915149569541666,-37.686626431250005,-18.896294595
1970-01-01 00:02:00.014441333,0.5106745851869231,9.861556250115383,3.0517672787692307,-0.08640903449895651,0.23099763076086954,0.17528634218695652,-5.831360817000001,-37.70553970000001,-18.887050629999994
1970-01-01 00:02:00.264441333,1.349425854436,9.487935736119999,2.8287156555999995,0.020121851651782624,0.27573685570417394,0.9240467094304349,-5.831360817000001,-37.70553970000001,-18.887050629999994
1970-01-01 00:02:00.514441333,3.033522526730769,7.440024543153847,3.359717278076923,-0.2396580011666667,0.35989276008666665,1.1059969427891667,-4.974213202583333,-38.19382746708333,-18.134353320000002
1970-01-01 00:02:00.764441333,5.624357933730769,6.1251415487307685,4.24340464073077,-0.6186484027778261,0.6225662050043479,1.3709348881869565,-4.936945914999998,-38.21505736999998,-18.10162735
1970-01-01 00:02:01.014441333,7.5626154602,4.97616800544,5.691488488800001,-0.01652791924500001,0.19628548839166668,0.06929282124504164,-4.936945915,-38.21505737,-18.10162735
1970-01-01 00:02:01.264441333,7.781689048192307,5.562444375807692,4.806406948423077,0.639416769795652,-0.13342848286186954,-0.33676092003086955,-4.936945914999998,-38.21505736999998,-18.10162735
1970-01-01 00:02:01.514441333,5.179569414692309,6.487820047076924,3.127250694846154,0.2861119175021305,0.0590047207073913,-1.2479628533173912,-3.517991563434781,-39.095392473478256,-17.399689133913036
1970-01-01 00:02:01.764441333,2.1182211364400003,8.51801868892,2.8953630615599995,0.04698786597750001,0.16111476354916665,-0.831718490475,7.419367253708333,-38.86761522416666,-17.44972173625
1970-01-01 00:02:02.014441333,1.7160314939615386,9.53816528323077,2.8512765091923074,0.039193383184391306,0.16242265305043477,0.02141777684826087,8.929286002999996,-38.613563539999994,-17.424150469999994
1970-01-01 00:02:02.264441333,2.0827976460769233,9.4501771015,2.696124150230769,0.046074748818416666,0.35013050281200003,0.8848040817625001,-2.784549157041667,-37.273830732499995,-18.44140784083333
1970-01-01 00:02:02.514441333,4.67932329716,6.567520770280001,2.96803394168,-0.32813463326521736,0.41076775478304345,1.4646874653086954,-20.155567251739132,-30.058550544782605,-22.008378402608695
1970-01-01 00:02:02.764441333,6.652995793230769,5.817312451923077,3.627038304384615,-0.22813858115826086,0.19910869800069567,0.5838932058043479,-24.57516686826087,-24.267883880869565,-24.812309846521735
1970-01-01 00:02:03.014441333,7.701461651076922,5.972896605346152,4.111897342423077,0.14240912712458334,0.385879294325,-0.11605523069208333,-23.923189878333332,-22.188978036250003,-27.318916717916665
1970-01-01 00:02:03.264441333,7.14339124148,6.438950134200001,3.7252073913599997,0.293105302952174,0.3193242880173913,-0.47234816816999997,-20.132181167391302,-25.13960705652174,-27.776790701739134
1970-01-01 00:02:03.514441333,4.234665122384615,6.951469345115385,3.1627326789230774,0.11712911832254168,0.21803110465,-1.1152892162208334,-12.130733290791667,-29.79506055541667,-27.71845062625
1970-01-01 00:02:03.764441333,2.0266643758461536,8.924084578307692,3.4924739016153845,0.16489116454743477,0.2739427621730434,-0.633256869473913,-8.642980576000003,-31.23694229,-27.6040802
1970-01-01 00:02:04.014441333,1.21298757928,9.58795175176,2.9857391235199997,0.028494014163565215,0.11096141115308693,0.10262525099895652,-4.605896302217391,-32.8433507826087,-21.905342557826085
1970-01-01 00:02:04.264441333,1.8833834838461538,8.081095275884616,2.634060903692308,-0.29695974584083334,0.29544901187670836,0.9127743318583335,-1.2382131517333332,-36.17326736458333,-13.249212622916664
1970-01-01 00:02:04.514441333,4.070209033576924,6.840953011192307,3.7339621088461543,-0.3687561063565218,0.2428559420904348,1.9501392400695654,-6.671778637343478,-33.991734380434785,-15.97792824434783
1970-01-01 00:02:04.764441333,8.30508348996,4.2379331726,4.789206793240001,-0.26393071810691665,0.35833866181291674,1.2316803733125,-20.091086625833334,-25.51540168125,-20.62076059875
1970-01-01 00:02:05.014441333,9.224302579346153,1.940173081642308,5.840301185038462,-0.03362565648913043,0.21107998933965216,0.2600468548643478,-21.142811152173913,-21.915745278260868,-24.420441752173915
1970-01-01 00:02:05.264441333,8.915155070346154,3.6455075895384614,5.042828768346155,0.524906041826087,0.24074173920956524,-1.3150055435,-18.38434530304348,-25.728010758695657,-24.13839671956521
1970-01-01 00:02:05.514441333,5.15994982904,6.4344894104,3.4913936096000002,0.5488140309791666,-0.07922781967620833,-2.0492442548333334,-5.473043820766667,-32.79961117208333,-20.010547479583334
1970-01-01 00:02:05.764441333,1.7700633650538462,8.113353195423077,2.594376120973077,0.3755002465552174,0.5663112291473913,-0.2649968036608696,6.733276926956522,-36.220856874782605,-13.910766810000002
1970-01-01 00:02:06.014441333,0.8138403027203847,9.577095865615386,2.4179219056538463,0.19492679026291668,0.46199461716083334,0.002675110006250009,10.590451478666667,-37.230738957916664,-9.112406452666667
1970-01-01 00:02:06.264441333,1.255313562028,9.355461218199999,2.45808039544,-0.39421849471739134,0.10451356090608695,0.905529569073913,8.61044392378261,-37.85828300173913,-9.009912408000002
1970-01-01 00:02:06.514441333,3.7811658712538456,5.814525938615385,2.068174209546154,-0.9123835589826087,-0.8667822422186954,1.4594911386956522,-2.861215612569566,-35.937832540869564,-16.11968965130435
1970-01-01 00:02:06.764441333,8.525469272346156,5.332142521730769,3.107439968461539,-0.11733211545541666,0.46919697554291667,1.3067726418416667,-15.521923064333334,-31.13575236041667,-18.655005653333333
1970-01-01 00:02:07.014441333,9.92593690788,2.96694420776,4.88366636356,-0.1806848018060869,0.40079835348869564,0.3238681131877435,-26.17999607608696,-21.961919120869567,-18.38017712521739
1970-01-01 00:02:07.264441333,9.853519116769231,3.4273247645,4.494916234961539,0.30531983264583334,0.025453092177958336,-0.8560107697416667,-27.174744844166668,-19.264945745833334,-20.08426769625
1970-01-01 00:02:07.514441333,6.243320793692307,6.041954920807693,3.0483301955,0.6323830576086956,0.7043137291217392,-1.330708415604348,-23.112263473913043,-23.541790509130436,-20.403609316086953
1970-01-01 00:02:07.764441333,2.9277904745,6.651654352038462,2.952684860192308,0.5085269535839131,1.0223346067478263,-0.6122331347482609,-8.328249266484784,-31.742403940000003,-21.866515530434782
1970-01-01 00:02:08.014441333,1.706499316404,9.35195850244,2.8404931640799997,0.4405261216041667,1.0049629803625,0.035526733339166665,1.5990829071895831,-35.88366492583334,-17.555674195833333
1970-01-01 00:02:08.264441333,2.247587655846154,9.337375136384615,2.139610272884615,-0.13530552881043478,-0.01838409187260869,0.12331122928652173,4.417348840913043,-36.348732989999995,-14.223404221739132
1970-01-01 00:02:08.514441333,1.7867594146538461,8.435656039884615,3.2562132850769236,-0.6270976575583334,-0.42362211589916665,0.7436725143708333,2.58345557275,-35.774358434166665,-15.787064787916664
1970-01-01 00:02:08.764441333,4.997274115,5.43681408704,2.6094456298399997,-0.743729587452174,-0.2662480013395653,1.712557414347826,-9.621940115826087,-30.54188280434783,-22.641041132608695
1970-01-01 00:02:09.014441333,8.946019733269232,3.972387454769231,4.902225001384616,-0.08996411434882608,0.3642390674952174,1.065763074421739,-11.162161039999999,-29.570944908695655,-23.351331957391302
1970-01-01 00:02:09.264441333,10.204141916115386,2.5274940490384616,5.545172600384616,0.11284307067183334,0.3501035167583333,0.11936858374249999,-20.14523124625,-20.508804161666664,-28.704925855
1970-01-01 00:02:09.514441333,8.954439147959999,3.3406450927199995,4.8774153626,0.39045588606521736,0.2927430323956522,-0.8389484688043479,-15.771897855217395,-23.850189872608695,-28.640033058260872
1970-01-01 00:02:09.764441333,6.460691845269232,5.757949359576925,3.3057026789615387,0.5183926808458333,0.24611937060458333,-1.3441208949583334,-6.427651608562502,-30.286506652499998,-25.907588640833335
1970-01-01 00:02:10.014441333,2.755020904473077,6.535766496000002,3.076874683115385,0.6579622869278261,1.1064559169478259,-0.8608899667434783,7.335112063895651,-33.73589723043479,-20.792810025652173
1970-01-01 00:02:10.264441333,0.9774493835264001,9.8968793346,2.749488409412,0.20628573316130436,0.4629835678365217,0.005598738136086956,8.903830569869564,-36.733661983043476,-14.645532400869568
1970-01-01 00:02:10.514441333,1.7936450958461536,9.267211426923076,2.3177974231923075,-0.02102780881108333,0.3981656606045833,0.22675804002245833,8.339339772833334,-37.497761725833335,-13.006594419999999
1970-01-01 00:02:10.764441333,1.443419547380769,8.604562489384616,3.147965311,-0.7170594205652173,-0.520811683673113,0.4640869662665218,6.820338041913044,-36.781203559999994,-15.441977167826087
1970-01-01 00:02:11.014441333,4.1162063047999995,5.537386944600001,3.3950120360400002,-0.7445856003666668,-0.28855174921845833,1.6186319142125,-2.3815217424166666,-33.307023764166665,-21.821392852916663
1970-01-01 00:02:11.264441333,8.668093836730769,4.825187125653846,4.9720260033076915,0.06693412917495653,0.5228920183904348,1.1825962817913043,-15.992512744782607,-26.07583004478261,-26.57287100086957
1970-01-01 00:02:11.514441333,9.402069449807692,3.186452583961538,5.9337242185,0.08057196236321741,0.3511516516565217,0.2421642135317391,-20.41049285652174,-22.40246681565218,-30.171279658695656
